,expName,subject,pairs,cs1,cs2,block,trial,condition,rating,rt,shock,picName,timestamp,morphing level,gender
0,LookAtMe1.2,45,1,2,1,1,1,41,3.0,0.6926809912547469,False,stim\8 F080C + F101C.jpg,2019-02-21 09:41:22,1,1
1,LookAtMe1.2,45,1,2,1,1,2,46,3.0,0.9297869550064206,False,stim\7 F080C.jpg,2019-02-21 09:41:32,6,1
2,LookAtMe1.2,45,1,2,1,1,3,16,3.0,0.61832026951015,False,stim\2 M024C + M010C.jpg,2019-02-21 09:41:42,6,0
3,LookAtMe1.2,45,1,2,1,1,4,11,3.0,0.604988751001656,False,stim\1 M024C.jpg,2019-02-21 09:41:50,1,0
4,LookAtMe1.2,45,1,2,1,1,5,41,3.0,0.642734594643116,False,stim\8 F080C + F101C.jpg,2019-02-21 09:41:59,1,1
5,LookAtMe1.2,45,1,2,1,1,6,11,2.0,0.5033454243093729,False,stim\1 M024C.jpg,2019-02-21 09:42:08,1,0
6,LookAtMe1.2,45,1,2,1,1,7,16,2.0,0.915805522352457,False,stim\2 M024C + M010C.jpg,2019-02-21 09:42:16,6,0
7,LookAtMe1.2,45,1,2,1,1,8,46,2.0,0.756328783929348,False,stim\7 F080C.jpg,2019-02-21 09:42:24,6,1
8,LookAtMe1.2,45,1,2,1,1,9,11,1.0,-3.453995759598911,False,stim\1 M024C.jpg,2019-02-21 09:42:34,1,0
9,LookAtMe1.2,45,1,2,1,1,10,16,1.0,0.8383181178942323,False,stim\2 M024C + M010C.jpg,2019-02-21 09:42:44,6,0
10,LookAtMe1.2,45,1,2,1,1,11,46,1.0,0.5200271746143699,False,stim\7 F080C.jpg,2019-02-21 09:42:53,6,1
11,LookAtMe1.2,45,1,2,1,1,12,41,1.0,0.4409989640116691,False,stim\8 F080C + F101C.jpg,2019-02-21 09:43:01,1,1
12,LookAtMe1.2,45,1,2,1,1,13,16,1.0,0.6525208773091435,False,stim\2 M024C + M010C.jpg,2019-02-21 09:43:10,6,0
13,LookAtMe1.2,45,1,2,1,1,14,41,1.0,0.668240824714303,False,stim\8 F080C + F101C.jpg,2019-02-21 09:43:20,1,1
14,LookAtMe1.2,45,1,2,1,1,15,46,1.0,0.4794421978294849,False,stim\7 F080C.jpg,2019-02-21 09:43:29,6,1
15,LookAtMe1.2,45,1,2,1,1,16,11,1.0,0.4592560743913054,False,stim\1 M024C.jpg,2019-02-21 09:43:38,1,0
16,LookAtMe1.2,45,1,2,1,1,17,16,1.0,0.9564557019621134,True,stim\2 M024C + M010C.jpg,2019-02-21 09:43:48,6,0
17,LookAtMe1.2,45,1,2,1,1,18,41,1.0,0.6805967194959521,False,stim\8 F080C + F101C.jpg,2019-02-21 09:43:58,1,1
18,LookAtMe1.2,45,1,2,1,1,19,11,2.0,0.6796790873631835,False,stim\1 M024C.jpg,2019-02-21 09:44:07,1,0
19,LookAtMe1.2,45,1,2,1,1,20,46,1.0,0.480505857616663,True,stim\7 F080C.jpg,2019-02-21 09:44:15,6,1
20,LookAtMe1.2,45,1,2,1,1,21,41,1.0,0.4434531964361667,False,stim\8 F080C + F101C.jpg,2019-02-21 09:44:25,1,1
21,LookAtMe1.2,45,1,2,1,1,22,46,2.0,0.4530943529680371,True,stim\7 F080C.jpg,2019-02-21 09:44:34,6,1
22,LookAtMe1.2,45,1,2,1,1,23,16,3.0,0.5706922933459282,True,stim\2 M024C + M010C.jpg,2019-02-21 09:44:42,6,0
23,LookAtMe1.2,45,1,2,1,1,24,11,1.0,0.4399268897250294,False,stim\1 M024C.jpg,2019-02-21 09:44:52,1,0
24,LookAtMe1.2,45,1,2,1,1,25,16,4.0,0.5517651364207268,False,stim\2 M024C + M010C.jpg,2019-02-21 09:45:00,6,0
25,LookAtMe1.2,45,1,2,1,1,26,46,3.0,0.4706423552706837,True,stim\7 F080C.jpg,2019-02-21 09:45:08,6,1
26,LookAtMe1.2,45,1,2,1,1,27,41,1.0,0.4750207923352718,False,stim\8 F080C + F101C.jpg,2019-02-21 09:45:18,1,1
27,LookAtMe1.2,45,1,2,1,1,28,11,1.0,0.445670960471034,False,stim\1 M024C.jpg,2019-02-21 09:45:27,1,0
28,LookAtMe1.2,45,1,2,1,1,29,41,1.0,0.4447410078719258,False,stim\8 F080C + F101C.jpg,2019-02-21 09:45:35,1,1
29,LookAtMe1.2,45,1,2,1,1,30,11,1.0,0.8216417757794261,False,stim\1 M024C.jpg,2019-02-21 09:45:44,1,0
30,LookAtMe1.2,45,1,2,1,1,31,16,4.0,0.4642123142257333,True,stim\2 M024C + M010C.jpg,2019-02-21 09:45:54,6,0
31,LookAtMe1.2,45,1,2,1,1,32,46,3.0,0.4284249283373356,False,stim\7 F080C.jpg,2019-02-21 09:46:04,6,1
32,LookAtMe1.2,45,1,2,1,1,33,11,1.0,0.3410608004778623,False,stim\1 M024C.jpg,2019-02-21 09:46:13,1,0
33,LookAtMe1.2,45,1,2,1,1,34,46,3.0,0.4801684310659766,True,stim\7 F080C.jpg,2019-02-21 09:46:23,6,1
34,LookAtMe1.2,45,1,2,1,1,35,16,5.0,0.6119383024051785,True,stim\2 M024C + M010C.jpg,2019-02-21 09:46:33,6,0
35,LookAtMe1.2,45,1,2,1,1,36,41,1.0,0.4090431621298194,False,stim\8 F080C + F101C.jpg,2019-02-21 09:46:42,1,1
36,LookAtMe1.2,45,1,2,1,1,37,46,3.0,0.4869470158591866,False,stim\7 F080C.jpg,2019-02-21 09:46:50,6,1
37,LookAtMe1.2,45,1,2,1,1,38,41,1.0,0.3861347883939743,False,stim\8 F080C + F101C.jpg,2019-02-21 09:47:00,1,1
38,LookAtMe1.2,45,1,2,1,1,39,16,5.0,0.3635725555941462,True,stim\2 M024C + M010C.jpg,2019-02-21 09:47:10,6,0
39,LookAtMe1.2,45,1,2,1,1,40,11,1.0,0.6963725546374917,False,stim\1 M024C.jpg,2019-02-21 09:47:19,1,0
40,LookAtMe1.2,45,1,2,1,1,41,16,5.0,0.5367563990876079,False,stim\2 M024C + M010C.jpg,2019-02-21 09:47:28,6,0
41,LookAtMe1.2,45,1,2,1,1,42,41,1.0,0.9008667934685946,False,stim\8 F080C + F101C.jpg,2019-02-21 09:47:38,1,1
42,LookAtMe1.2,45,1,2,1,1,43,46,3.0,0.950232082977891,True,stim\7 F080C.jpg,2019-02-21 09:47:48,6,1
43,LookAtMe1.2,45,1,2,1,1,44,11,1.0,0.4778716443106532,False,stim\1 M024C.jpg,2019-02-21 09:47:57,1,0
44,LookAtMe1.2,45,1,2,1,1,45,16,4.0,0.6273493692278862,True,stim\2 M024C + M010C.jpg,2019-02-21 09:48:06,6,0
45,LookAtMe1.2,45,1,2,1,1,46,11,1.0,0.4205601466819644,False,stim\1 M024C.jpg,2019-02-21 09:48:16,1,0
46,LookAtMe1.2,45,1,2,1,1,47,46,4.0,0.7632215470075607,True,stim\7 F080C.jpg,2019-02-21 09:48:25,6,1
47,LookAtMe1.2,45,1,2,1,1,48,41,1.0,0.4405416501685977,False,stim\8 F080C + F101C.jpg,2019-02-21 09:48:35,1,1
48,LookAtMe1.2,45,1,2,1,2,49,12,4.0,0.53372857067734,False,stim\morph\1&2 20.jpg,2019-02-21 09:50:37,2,0
49,LookAtMe1.2,45,1,2,1,2,50,16,4.0,0.6086998451501131,True,stim\2 M024C + M010C.jpg,2019-02-21 09:50:45,6,0
50,LookAtMe1.2,45,1,2,1,2,51,15,3.0,1.2369166687130928,False,stim\morph\1&2 80.jpg,2019-02-21 09:50:55,5,0
51,LookAtMe1.2,45,1,2,1,2,52,14,2.0,1.1171081764623525,False,stim\morph\1&2 60.jpg,2019-02-21 09:51:05,4,0
52,LookAtMe1.2,45,1,2,1,2,53,16,5.0,0.5857217628508806,False,stim\2 M024C + M010C.jpg,2019-02-21 09:51:14,6,0
53,LookAtMe1.2,45,1,2,1,2,54,43,3.0,0.6336766490712762,False,stim\morph\7&8 60.jpg,2019-02-21 09:51:24,3,1
54,LookAtMe1.2,45,1,2,1,2,55,45,3.0,0.8442520843818784,False,stim\morph\7&8 20.jpg,2019-02-21 09:51:34,5,1
55,LookAtMe1.2,45,1,2,1,2,56,13,2.0,0.7767931399866939,False,stim\morph\1&2 40.jpg,2019-02-21 09:51:44,3,0
56,LookAtMe1.2,45,1,2,1,2,57,41,1.0,0.7377444617450237,False,stim\8 F080C + F101C.jpg,2019-02-21 09:51:53,1,1
57,LookAtMe1.2,45,1,2,1,2,58,46,3.0,1.0007974449545145,True,stim\7 F080C.jpg,2019-02-21 09:52:02,6,1
58,LookAtMe1.2,45,1,2,1,2,59,11,1.0,1.0971636306494474,False,stim\1 M024C.jpg,2019-02-21 09:52:12,1,0
59,LookAtMe1.2,45,1,2,1,2,60,42,,-99.0,False,stim\morph\7&8 80.jpg,2019-02-21 09:52:20,2,1
60,LookAtMe1.2,45,1,2,1,2,61,46,3.0,0.362684067338705,False,stim\7 F080C.jpg,2019-02-21 09:52:30,6,1
61,LookAtMe1.2,45,1,2,1,2,62,44,1.0,0.6330814193934202,False,stim\morph\7&8 40.jpg,2019-02-21 09:52:39,4,1
62,LookAtMe1.2,45,1,2,1,2,63,16,3.0,0.8912298446521163,False,stim\2 M024C + M010C.jpg,2019-02-21 09:52:48,6,0
63,LookAtMe1.2,45,1,2,1,2,64,15,3.0,0.8265709737315774,False,stim\morph\1&2 80.jpg,2019-02-21 09:52:57,5,0
64,LookAtMe1.2,45,1,2,1,2,65,45,3.0,0.6548678409308195,False,stim\morph\7&8 20.jpg,2019-02-21 09:53:07,5,1
65,LookAtMe1.2,45,1,2,1,2,66,46,3.0,0.3892533583566546,True,stim\7 F080C.jpg,2019-02-21 09:53:17,6,1
66,LookAtMe1.2,45,1,2,1,2,67,13,2.0,0.8655397268012166,False,stim\morph\1&2 40.jpg,2019-02-21 09:53:26,3,0
67,LookAtMe1.2,45,1,2,1,2,68,16,4.0,0.3211760483682155,True,stim\2 M024C + M010C.jpg,2019-02-21 09:53:35,6,0
68,LookAtMe1.2,45,1,2,1,2,69,42,1.0,0.7357751857489347,False,stim\morph\7&8 80.jpg,2019-02-21 09:53:44,2,1
69,LookAtMe1.2,45,1,2,1,2,70,12,1.0,0.6925070183351636,False,stim\morph\1&2 20.jpg,2019-02-21 09:53:54,2,0
70,LookAtMe1.2,45,1,2,1,2,71,46,3.0,0.6193956481292844,False,stim\7 F080C.jpg,2019-02-21 09:54:04,6,1
71,LookAtMe1.2,45,1,2,1,2,72,44,1.0,0.6464306656271219,False,stim\morph\7&8 40.jpg,2019-02-21 09:54:13,4,1
72,LookAtMe1.2,45,1,2,1,2,73,41,1.0,0.5023262333124876,False,stim\8 F080C + F101C.jpg,2019-02-21 09:54:23,1,1
73,LookAtMe1.2,45,1,2,1,2,74,11,1.0,0.4794094460085034,False,stim\1 M024C.jpg,2019-02-21 09:54:33,1,0
74,LookAtMe1.2,45,1,2,1,2,75,14,1.0,0.7823268817737699,False,stim\morph\1&2 60.jpg,2019-02-21 09:54:41,4,0
75,LookAtMe1.2,45,1,2,1,2,76,43,1.0,0.6903848052024841,False,stim\morph\7&8 60.jpg,2019-02-21 09:54:50,3,1
76,LookAtMe1.2,45,1,2,1,2,77,14,1.0,0.6359394835308194,False,stim\morph\1&2 60.jpg,2019-02-21 09:55:00,4,0
77,LookAtMe1.2,45,1,2,1,2,78,43,1.0,0.3955544978380203,False,stim\morph\7&8 60.jpg,2019-02-21 09:55:09,3,1
78,LookAtMe1.2,45,1,2,1,2,79,42,1.0,0.4864888004958629,False,stim\morph\7&8 80.jpg,2019-02-21 09:55:19,2,1
79,LookAtMe1.2,45,1,2,1,2,80,15,1.0,0.6319465478882194,False,stim\morph\1&2 80.jpg,2019-02-21 09:55:28,5,0
80,LookAtMe1.2,45,1,2,1,2,81,16,4.0,0.4932208135724067,True,stim\2 M024C + M010C.jpg,2019-02-21 09:55:37,6,0
81,LookAtMe1.2,45,1,2,1,2,82,13,1.0,0.4633971415460109,False,stim\morph\1&2 40.jpg,2019-02-21 09:55:46,3,0
82,LookAtMe1.2,45,1,2,1,2,83,44,1.0,0.3715617302805185,False,stim\morph\7&8 40.jpg,2019-02-21 09:55:56,4,1
83,LookAtMe1.2,45,1,2,1,2,84,46,3.0,0.467108235694468,False,stim\7 F080C.jpg,2019-02-21 09:56:06,6,1
84,LookAtMe1.2,45,1,2,1,2,85,41,1.0,0.3745117373764515,False,stim\8 F080C + F101C.jpg,2019-02-21 09:56:15,1,1
85,LookAtMe1.2,45,1,2,1,2,86,12,1.0,0.7155581153929234,False,stim\morph\1&2 20.jpg,2019-02-21 09:56:24,2,0
86,LookAtMe1.2,45,1,2,1,2,87,46,3.0,0.7939916979521513,True,stim\7 F080C.jpg,2019-02-21 09:56:33,6,1
87,LookAtMe1.2,45,1,2,1,2,88,16,5.0,0.5406267428770661,False,stim\2 M024C + M010C.jpg,2019-02-21 09:56:42,6,0
88,LookAtMe1.2,45,1,2,1,2,89,45,1.0,0.5461992444470525,False,stim\morph\7&8 20.jpg,2019-02-21 09:56:51,5,1
89,LookAtMe1.2,45,1,2,1,2,90,11,1.0,0.5413244320079684,False,stim\1 M024C.jpg,2019-02-21 09:57:01,1,0
90,LookAtMe1.2,45,1,2,1,2,91,45,1.0,0.5788001539185643,False,stim\morph\7&8 20.jpg,2019-02-21 09:57:11,5,1
91,LookAtMe1.2,45,1,2,1,2,92,11,1.0,0.9184619700536132,False,stim\1 M024C.jpg,2019-02-21 09:57:20,1,0
92,LookAtMe1.2,45,1,2,1,2,93,46,3.0,0.6014525284990668,False,stim\7 F080C.jpg,2019-02-21 09:57:30,6,1
93,LookAtMe1.2,45,1,2,1,2,94,42,1.0,0.4303353121504187,False,stim\morph\7&8 80.jpg,2019-02-21 09:57:39,2,1
94,LookAtMe1.2,45,1,2,1,2,95,41,1.0,0.5123276505619287,False,stim\8 F080C + F101C.jpg,2019-02-21 09:57:48,1,1
95,LookAtMe1.2,45,1,2,1,2,96,46,3.0,0.6312798066064715,True,stim\7 F080C.jpg,2019-02-21 09:57:58,6,1
96,LookAtMe1.2,45,1,2,1,2,97,15,1.0,0.735065178014338,False,stim\morph\1&2 80.jpg,2019-02-21 09:58:06,5,0
97,LookAtMe1.2,45,1,2,1,2,98,44,1.0,0.7077176719903946,False,stim\morph\7&8 40.jpg,2019-02-21 09:58:15,4,1
98,LookAtMe1.2,45,1,2,1,2,99,16,4.0,0.4934834232553839,False,stim\2 M024C + M010C.jpg,2019-02-21 09:58:24,6,0
99,LookAtMe1.2,45,1,2,1,2,100,43,1.0,0.5261774780228734,False,stim\morph\7&8 60.jpg,2019-02-21 09:58:34,3,1
100,LookAtMe1.2,45,1,2,1,2,101,16,1.0,0.5127242701128125,True,stim\2 M024C + M010C.jpg,2019-02-21 09:58:42,6,0
101,LookAtMe1.2,45,1,2,1,2,102,12,1.0,0.5770532265305519,False,stim\morph\1&2 20.jpg,2019-02-21 09:58:51,2,0
102,LookAtMe1.2,45,1,2,1,2,103,13,1.0,0.5550498655065894,False,stim\morph\1&2 40.jpg,2019-02-21 09:58:59,3,0
103,LookAtMe1.2,45,1,2,1,2,104,14,1.0,1.5586936557665467,False,stim\morph\1&2 60.jpg,2019-02-21 09:59:08,4,0
104,LookAtMe1.2,45,1,2,1,2,105,44,1.0,0.4815821386873722,False,stim\morph\7&8 40.jpg,2019-02-21 09:59:17,4,1
105,LookAtMe1.2,45,1,2,1,2,106,46,3.0,0.5486546792089939,False,stim\7 F080C.jpg,2019-02-21 09:59:27,6,1
106,LookAtMe1.2,45,1,2,1,2,107,42,1.0,1.0375120788812635,False,stim\morph\7&8 80.jpg,2019-02-21 09:59:36,2,1
107,LookAtMe1.2,45,1,2,1,2,108,16,4.0,0.5195226864889264,True,stim\2 M024C + M010C.jpg,2019-02-21 09:59:45,6,0
108,LookAtMe1.2,45,1,2,1,2,109,43,1.0,0.4116040607914328,False,stim\morph\7&8 60.jpg,2019-02-21 09:59:53,3,1
109,LookAtMe1.2,45,1,2,1,2,110,45,1.0,0.5322664873674512,False,stim\morph\7&8 20.jpg,2019-02-21 10:00:02,5,1
110,LookAtMe1.2,45,1,2,1,2,111,11,1.0,0.5677290661260486,False,stim\1 M024C.jpg,2019-02-21 10:00:11,1,0
111,LookAtMe1.2,45,1,2,1,2,112,16,4.0,0.5233284300193191,False,stim\2 M024C + M010C.jpg,2019-02-21 10:00:19,6,0
112,LookAtMe1.2,45,1,2,1,2,113,41,1.0,0.6366026187315583,False,stim\8 F080C + F101C.jpg,2019-02-21 10:00:28,1,1
113,LookAtMe1.2,45,1,2,1,2,114,13,1.0,0.4387986278161406,False,stim\morph\1&2 40.jpg,2019-02-21 10:00:37,3,0
114,LookAtMe1.2,45,1,2,1,2,115,15,3.0,0.7667700881138444,False,stim\morph\1&2 80.jpg,2019-02-21 10:00:45,5,0
115,LookAtMe1.2,45,1,2,1,2,116,46,3.0,0.5283757112920284,True,stim\7 F080C.jpg,2019-02-21 10:00:56,6,1
116,LookAtMe1.2,45,1,2,1,2,117,14,2.0,1.5733436336740851,False,stim\morph\1&2 60.jpg,2019-02-21 10:01:05,4,0
117,LookAtMe1.2,45,1,2,1,2,118,12,1.0,0.4528395542874932,False,stim\morph\1&2 20.jpg,2019-02-21 10:01:13,2,0
118,LookAtMe1.2,45,1,2,1,2,119,14,1.0,0.4042548844590783,False,stim\morph\1&2 60.jpg,2019-02-21 10:01:22,4,0
119,LookAtMe1.2,45,1,2,1,2,120,43,1.0,0.4650497213006019,False,stim\morph\7&8 60.jpg,2019-02-21 10:01:31,3,1
120,LookAtMe1.2,45,1,2,1,2,121,44,1.0,0.4352825367823243,False,stim\morph\7&8 40.jpg,2019-02-21 10:01:39,4,1
121,LookAtMe1.2,45,1,2,1,2,122,46,3.0,0.4905676702037453,False,stim\7 F080C.jpg,2019-02-21 10:01:47,6,1
122,LookAtMe1.2,45,1,2,1,2,123,12,1.0,0.3782408609986305,False,stim\morph\1&2 20.jpg,2019-02-21 10:01:56,2,0
123,LookAtMe1.2,45,1,2,1,2,124,16,4.0,0.7086235862225294,True,stim\2 M024C + M010C.jpg,2019-02-21 10:02:06,6,0
124,LookAtMe1.2,45,1,2,1,2,125,42,1.0,0.5814623115584254,False,stim\morph\7&8 80.jpg,2019-02-21 10:02:14,2,1
125,LookAtMe1.2,45,1,2,1,2,126,15,1.0,0.3608704349026084,False,stim\morph\1&2 80.jpg,2019-02-21 10:02:22,5,0
126,LookAtMe1.2,45,1,2,1,2,127,11,1.0,0.5885110190138221,False,stim\1 M024C.jpg,2019-02-21 10:02:32,1,0
127,LookAtMe1.2,45,1,2,1,2,128,13,1.0,0.4410287104547024,False,stim\morph\1&2 40.jpg,2019-02-21 10:02:40,3,0
128,LookAtMe1.2,45,1,2,1,2,129,46,3.0,0.5648953402414918,True,stim\7 F080C.jpg,2019-02-21 10:02:49,6,1
129,LookAtMe1.2,45,1,2,1,2,130,16,4.0,0.8031761394813657,False,stim\2 M024C + M010C.jpg,2019-02-21 10:02:59,6,0
130,LookAtMe1.2,45,1,2,1,2,131,45,1.0,0.4997157556936145,False,stim\morph\7&8 20.jpg,2019-02-21 10:03:08,5,1
131,LookAtMe1.2,45,1,2,1,2,132,41,1.0,0.4860621346160769,False,stim\8 F080C + F101C.jpg,2019-02-21 10:03:18,1,1
132,LookAtMe1.2,45,1,2,1,2,133,16,4.0,0.4545050552114844,False,stim\2 M024C + M010C.jpg,2019-02-21 10:03:27,6,0
133,LookAtMe1.2,45,1,2,1,2,134,15,1.0,0.4468118408694863,False,stim\morph\1&2 80.jpg,2019-02-21 10:03:35,5,0
134,LookAtMe1.2,45,1,2,1,2,135,41,1.0,0.556020381860435,False,stim\8 F080C + F101C.jpg,2019-02-21 10:03:44,1,1
135,LookAtMe1.2,45,1,2,1,2,136,13,1.0,0.5888959197327495,False,stim\morph\1&2 40.jpg,2019-02-21 10:03:52,3,0
136,LookAtMe1.2,45,1,2,1,2,137,46,3.0,0.4098174711689353,False,stim\7 F080C.jpg,2019-02-21 10:04:01,6,1
137,LookAtMe1.2,45,1,2,1,2,138,16,3.0,0.5012538582086563,True,stim\2 M024C + M010C.jpg,2019-02-21 10:04:09,6,0
138,LookAtMe1.2,45,1,2,1,2,139,12,1.0,0.4002974042668938,False,stim\morph\1&2 20.jpg,2019-02-21 10:04:18,2,0
139,LookAtMe1.2,45,1,2,1,2,140,11,1.0,0.5517849680036306,False,stim\1 M024C.jpg,2019-02-21 10:04:26,1,0
140,LookAtMe1.2,45,1,2,1,2,141,14,1.0,0.720557021908462,False,stim\morph\1&2 60.jpg,2019-02-21 10:04:36,4,0
141,LookAtMe1.2,45,1,2,1,2,142,43,1.0,0.972048851661384,False,stim\morph\7&8 60.jpg,2019-02-21 10:04:45,3,1
142,LookAtMe1.2,45,1,2,1,2,143,46,3.0,0.4779894286766648,True,stim\7 F080C.jpg,2019-02-21 10:04:54,6,1
143,LookAtMe1.2,45,1,2,1,2,144,42,1.0,0.4845017986372113,False,stim\morph\7&8 80.jpg,2019-02-21 10:05:02,2,1
144,LookAtMe1.2,45,1,2,1,2,145,44,1.0,0.4584439052268863,False,stim\morph\7&8 40.jpg,2019-02-21 10:05:11,4,1
145,LookAtMe1.2,45,1,2,1,2,146,46,3.0,0.3706062389537692,True,stim\7 F080C.jpg,2019-02-21 10:05:19,6,1
146,LookAtMe1.2,45,1,2,1,2,147,45,1.0,0.3637336064130068,False,stim\morph\7&8 20.jpg,2019-02-21 10:05:29,5,1
147,LookAtMe1.2,45,1,2,1,2,148,12,1.0,0.4224687274545431,False,stim\morph\1&2 20.jpg,2019-02-21 10:05:37,2,0
148,LookAtMe1.2,45,1,2,1,2,149,43,1.0,0.4860002379864454,False,stim\morph\7&8 60.jpg,2019-02-21 10:05:47,3,1
149,LookAtMe1.2,45,1,2,1,2,150,14,1.0,0.5549693405628204,False,stim\morph\1&2 60.jpg,2019-02-21 10:05:57,4,0
150,LookAtMe1.2,45,1,2,1,2,151,16,4.0,0.4554452234879136,True,stim\2 M024C + M010C.jpg,2019-02-21 10:06:05,6,0
151,LookAtMe1.2,45,1,2,1,2,152,42,1.0,0.4410794898867607,False,stim\morph\7&8 80.jpg,2019-02-21 10:06:13,2,1
152,LookAtMe1.2,45,1,2,1,2,153,45,1.0,0.482879564166069,False,stim\morph\7&8 20.jpg,2019-02-21 10:06:21,5,1
153,LookAtMe1.2,45,1,2,1,2,154,16,2.0,1.244840944185853,False,stim\2 M024C + M010C.jpg,2019-02-21 10:06:30,6,0
154,LookAtMe1.2,45,1,2,1,2,155,13,1.0,0.4544984456151724,False,stim\morph\1&2 40.jpg,2019-02-21 10:06:40,3,0
155,LookAtMe1.2,45,1,2,1,2,156,44,1.0,0.4571966584771871,False,stim\morph\7&8 40.jpg,2019-02-21 10:06:48,4,1
156,LookAtMe1.2,45,1,2,1,2,157,15,1.0,0.451190278865397,False,stim\morph\1&2 80.jpg,2019-02-21 10:06:58,5,0
157,LookAtMe1.2,45,1,2,1,2,158,41,1.0,0.382264744490385,False,stim\8 F080C + F101C.jpg,2019-02-21 10:07:07,1,1
158,LookAtMe1.2,45,1,2,1,2,159,11,1.0,0.46773471403867,False,stim\1 M024C.jpg,2019-02-21 10:07:16,1,0
159,LookAtMe1.2,45,1,2,1,2,160,46,3.0,0.3877335852012038,False,stim\7 F080C.jpg,2019-02-21 10:07:25,6,1
