,expName,subject,pairs,cs1,cs2,block,trial,condition,rating,rt,shock,picName,timestamp,morphing level,gender
0,LookAtMe1.2,42,2,2,2,1,1,31,,-99.0,False,stim\5 F053C + F048C.jpg,2019-02-19 10:35:21,1,1
1,LookAtMe1.2,42,2,2,2,1,2,36,4.0,0.4429054409265518,False,stim\6 F053C.jpg,2019-02-19 10:35:30,6,1
2,LookAtMe1.2,42,2,2,2,1,3,26,2.0,0.6392632741481066,False,stim\4 M078C.jpg,2019-02-19 10:35:39,6,0
3,LookAtMe1.2,42,2,2,2,1,4,21,3.0,0.8397561628371477,False,stim\3 M078C + M057C.jpg,2019-02-19 10:35:48,1,0
4,LookAtMe1.2,42,2,2,2,1,5,31,3.0,1.099380192346871,False,stim\5 F053C + F048C.jpg,2019-02-19 10:35:58,1,1
5,LookAtMe1.2,42,2,2,2,1,6,21,3.0,0.9280625618994236,False,stim\3 M078C + M057C.jpg,2019-02-19 10:36:06,1,0
6,LookAtMe1.2,42,2,2,2,1,7,26,1.0,0.8240722715854645,False,stim\4 M078C.jpg,2019-02-19 10:36:15,6,0
7,LookAtMe1.2,42,2,2,2,1,8,36,4.0,0.9132326040416956,False,stim\6 F053C.jpg,2019-02-19 10:36:25,6,1
8,LookAtMe1.2,42,2,2,2,1,9,21,3.0,1.007541175931692,False,stim\3 M078C + M057C.jpg,2019-02-19 10:36:34,1,0
9,LookAtMe1.2,42,2,2,2,1,10,26,1.0,0.6866139164194465,False,stim\4 M078C.jpg,2019-02-19 10:36:44,6,0
10,LookAtMe1.2,42,2,2,2,1,11,36,4.0,0.8555109659209847,False,stim\6 F053C.jpg,2019-02-19 10:36:53,6,1
11,LookAtMe1.2,42,2,2,2,1,12,31,3.0,1.0513901505619287,False,stim\5 F053C + F048C.jpg,2019-02-19 10:37:02,1,1
12,LookAtMe1.2,42,2,2,2,1,13,26,1.0,0.8729877574369311,False,stim\4 M078C.jpg,2019-02-19 10:37:11,6,0
13,LookAtMe1.2,42,2,2,2,1,14,31,2.0,1.229726741090417,False,stim\5 F053C + F048C.jpg,2019-02-19 10:37:21,1,1
14,LookAtMe1.2,42,2,2,2,1,15,36,4.0,0.9661160865798591,False,stim\6 F053C.jpg,2019-02-19 10:37:30,6,1
15,LookAtMe1.2,42,2,2,2,1,16,21,,-99.0,False,stim\3 M078C + M057C.jpg,2019-02-19 10:37:40,1,0
16,LookAtMe1.2,42,2,2,2,1,17,26,1.0,0.6016484340652823,True,stim\4 M078C.jpg,2019-02-19 10:37:49,6,0
17,LookAtMe1.2,42,2,2,2,1,18,31,2.0,0.9760745381936432,False,stim\5 F053C + F048C.jpg,2019-02-19 10:37:59,1,1
18,LookAtMe1.2,42,2,2,2,1,19,21,4.0,0.7378472220152617,False,stim\3 M078C + M057C.jpg,2019-02-19 10:38:08,1,0
19,LookAtMe1.2,42,2,2,2,1,20,36,4.0,0.8391029424965382,True,stim\6 F053C.jpg,2019-02-19 10:38:16,6,1
20,LookAtMe1.2,42,2,2,2,1,21,31,1.0,0.6054800171405077,False,stim\5 F053C + F048C.jpg,2019-02-19 10:38:26,1,1
21,LookAtMe1.2,42,2,2,2,1,22,36,4.0,0.719726825132966,True,stim\6 F053C.jpg,2019-02-19 10:38:36,6,1
22,LookAtMe1.2,42,2,2,2,1,23,26,2.0,1.1428331481292844,True,stim\4 M078C.jpg,2019-02-19 10:38:44,6,0
23,LookAtMe1.2,42,2,2,2,1,24,21,3.0,0.879511846229434,False,stim\3 M078C + M057C.jpg,2019-02-19 10:38:54,1,0
24,LookAtMe1.2,42,2,2,2,1,25,26,3.0,0.8101238897070289,False,stim\4 M078C.jpg,2019-02-19 10:39:02,6,0
25,LookAtMe1.2,42,2,2,2,1,26,36,4.0,-0.3711188398301601,True,stim\6 F053C.jpg,2019-02-19 10:39:10,6,1
26,LookAtMe1.2,42,2,2,2,1,27,31,3.0,0.6040536900982261,False,stim\5 F053C + F048C.jpg,2019-02-19 10:39:20,1,1
27,LookAtMe1.2,42,2,2,2,1,28,21,4.0,0.813381876796484,False,stim\3 M078C + M057C.jpg,2019-02-19 10:39:29,1,0
28,LookAtMe1.2,42,2,2,2,1,29,31,3.0,0.6430906504392624,False,stim\5 F053C + F048C.jpg,2019-02-19 10:39:38,1,1
29,LookAtMe1.2,42,2,2,2,1,30,21,4.0,0.620617956854403,False,stim\3 M078C + M057C.jpg,2019-02-19 10:39:46,1,0
30,LookAtMe1.2,42,2,2,2,1,31,26,2.0,0.6871355306357145,True,stim\4 M078C.jpg,2019-02-19 10:39:55,6,0
31,LookAtMe1.2,42,2,2,2,1,32,36,2.0,0.3528443016111851,False,stim\6 F053C.jpg,2019-02-19 10:40:05,6,1
32,LookAtMe1.2,42,2,2,2,1,33,21,2.0,0.6135683488100767,False,stim\3 M078C + M057C.jpg,2019-02-19 10:40:15,1,0
33,LookAtMe1.2,42,2,2,2,1,34,36,4.0,0.4177312292158603,True,stim\6 F053C.jpg,2019-02-19 10:40:23,6,1
34,LookAtMe1.2,42,2,2,2,1,35,26,3.0,1.5926463762298226,True,stim\4 M078C.jpg,2019-02-19 10:40:33,6,0
35,LookAtMe1.2,42,2,2,2,1,36,31,3.0,0.5364841744303703,False,stim\5 F053C + F048C.jpg,2019-02-19 10:40:43,1,1
36,LookAtMe1.2,42,2,2,2,1,37,36,4.0,0.2752036582678556,False,stim\6 F053C.jpg,2019-02-19 10:40:51,6,1
37,LookAtMe1.2,42,2,2,2,1,38,31,4.0,0.6062816698104143,False,stim\5 F053C + F048C.jpg,2019-02-19 10:41:01,1,1
38,LookAtMe1.2,42,2,2,2,1,39,26,3.0,0.6389387659728527,True,stim\4 M078C.jpg,2019-02-19 10:41:09,6,0
39,LookAtMe1.2,42,2,2,2,1,40,21,1.0,0.7954366533085704,False,stim\3 M078C + M057C.jpg,2019-02-19 10:41:19,1,0
40,LookAtMe1.2,42,2,2,2,1,41,26,4.0,0.5338697908446193,False,stim\4 M078C.jpg,2019-02-19 10:41:29,6,0
41,LookAtMe1.2,42,2,2,2,1,42,31,1.0,0.4921379219740629,False,stim\5 F053C + F048C.jpg,2019-02-19 10:41:39,1,1
42,LookAtMe1.2,42,2,2,2,1,43,36,4.0,0.3199819838628173,True,stim\6 F053C.jpg,2019-02-19 10:41:47,6,1
43,LookAtMe1.2,42,2,2,2,1,44,21,2.0,1.260688891634345,False,stim\3 M078C + M057C.jpg,2019-02-19 10:41:56,1,0
44,LookAtMe1.2,42,2,2,2,1,45,26,4.0,0.3438843097537756,True,stim\4 M078C.jpg,2019-02-19 10:42:04,6,0
45,LookAtMe1.2,42,2,2,2,1,46,21,1.0,0.8503771489486098,False,stim\3 M078C + M057C.jpg,2019-02-19 10:42:13,1,0
46,LookAtMe1.2,42,2,2,2,1,47,36,2.0,0.6759012872353196,True,stim\6 F053C.jpg,2019-02-19 10:42:23,6,1
47,LookAtMe1.2,42,2,2,2,1,48,31,1.0,0.7909178975969553,False,stim\5 F053C + F048C.jpg,2019-02-19 10:42:32,1,1
48,LookAtMe1.2,42,2,2,2,2,49,22,3.0,0.929277359507978,False,stim\morph\3&4 20.jpg,2019-02-19 10:46:01,2,0
49,LookAtMe1.2,42,2,2,2,2,50,26,4.0,0.4069287599995732,True,stim\4 M078C.jpg,2019-02-19 10:46:10,6,0
50,LookAtMe1.2,42,2,2,2,2,51,25,1.0,0.810180377215147,False,stim\morph\3&4 80.jpg,2019-02-19 10:46:19,5,0
51,LookAtMe1.2,42,2,2,2,2,52,24,2.0,0.6508151134476066,False,stim\morph\3&4 60.jpg,2019-02-19 10:46:28,4,0
52,LookAtMe1.2,42,2,2,2,2,53,26,3.0,1.531737661920488,False,stim\4 M078C.jpg,2019-02-19 10:46:38,6,0
53,LookAtMe1.2,42,2,2,2,2,54,33,2.0,0.7165520684793591,False,stim\morph\5&6 40.jpg,2019-02-19 10:46:48,3,1
54,LookAtMe1.2,42,2,2,2,2,55,35,2.0,0.3555911909788847,False,stim\morph\5&6 80.jpg,2019-02-19 10:46:57,5,1
55,LookAtMe1.2,42,2,2,2,2,56,23,4.0,0.8603728590533137,False,stim\morph\3&4 40.jpg,2019-02-19 10:47:06,3,0
56,LookAtMe1.2,42,2,2,2,2,57,31,2.0,0.9908813610672952,False,stim\5 F053C + F048C.jpg,2019-02-19 10:47:16,1,1
57,LookAtMe1.2,42,2,2,2,2,58,36,5.0,0.625461520627141,True,stim\6 F053C.jpg,2019-02-19 10:47:25,6,1
58,LookAtMe1.2,42,2,2,2,2,59,21,1.0,0.5907224714756012,False,stim\3 M078C + M057C.jpg,2019-02-19 10:47:34,1,0
59,LookAtMe1.2,42,2,2,2,2,60,32,2.0,0.6172842504456639,False,stim\morph\5&6 20.jpg,2019-02-19 10:47:43,2,1
60,LookAtMe1.2,42,2,2,2,2,61,36,3.0,1.3220486110076308,False,stim\6 F053C.jpg,2019-02-19 10:47:52,6,1
61,LookAtMe1.2,42,2,2,2,2,62,34,1.0,0.5159080419689417,False,stim\morph\5&6 60.jpg,2019-02-19 10:48:02,4,1
62,LookAtMe1.2,42,2,2,2,2,63,26,3.0,0.8490989524871111,False,stim\4 M078C.jpg,2019-02-19 10:48:11,6,0
63,LookAtMe1.2,42,2,2,2,2,64,25,1.0,0.7749912263825536,False,stim\morph\3&4 80.jpg,2019-02-19 10:48:20,5,0
64,LookAtMe1.2,42,2,2,2,2,65,35,4.0,0.3982677347958088,False,stim\morph\5&6 80.jpg,2019-02-19 10:48:29,5,1
65,LookAtMe1.2,42,2,2,2,2,66,36,5.0,0.8272923994809389,True,stim\6 F053C.jpg,2019-02-19 10:48:37,6,1
66,LookAtMe1.2,42,2,2,2,2,67,23,2.0,0.535650972276926,False,stim\morph\3&4 40.jpg,2019-02-19 10:48:47,3,0
67,LookAtMe1.2,42,2,2,2,2,68,26,1.0,0.807497788220644,True,stim\4 M078C.jpg,2019-02-19 10:48:56,6,0
68,LookAtMe1.2,42,2,2,2,2,69,32,2.0,1.1367663741111755,False,stim\morph\5&6 20.jpg,2019-02-19 10:49:05,2,1
69,LookAtMe1.2,42,2,2,2,2,70,22,1.0,0.4823507387191057,False,stim\morph\3&4 20.jpg,2019-02-19 10:49:13,2,0
70,LookAtMe1.2,42,2,2,2,2,71,36,4.0,0.6325453827157617,False,stim\6 F053C.jpg,2019-02-19 10:49:22,6,1
71,LookAtMe1.2,42,2,2,2,2,72,34,3.0,1.2582154292613268,False,stim\morph\5&6 60.jpg,2019-02-19 10:49:31,4,1
72,LookAtMe1.2,42,2,2,2,2,73,31,2.0,0.3978200349956751,False,stim\5 F053C + F048C.jpg,2019-02-19 10:49:41,1,1
73,LookAtMe1.2,42,2,2,2,2,74,21,1.0,0.9875019835308194,False,stim\3 M078C + M057C.jpg,2019-02-19 10:49:49,1,0
74,LookAtMe1.2,42,2,2,2,2,75,24,4.0,0.8094808850437403,False,stim\morph\3&4 60.jpg,2019-02-19 10:49:58,4,0
75,LookAtMe1.2,42,2,2,2,2,76,33,2.0,1.28720049187541,False,stim\morph\5&6 40.jpg,2019-02-19 10:50:07,3,1
76,LookAtMe1.2,42,2,2,2,2,77,24,4.0,0.7047024639323354,False,stim\morph\3&4 60.jpg,2019-02-19 10:50:17,4,0
77,LookAtMe1.2,42,2,2,2,2,78,33,3.0,1.2163534574210644,False,stim\morph\5&6 40.jpg,2019-02-19 10:50:27,3,1
78,LookAtMe1.2,42,2,2,2,2,79,32,3.0,0.8595390561968088,False,stim\morph\5&6 20.jpg,2019-02-19 10:50:35,2,1
79,LookAtMe1.2,42,2,2,2,2,80,25,1.0,0.3320506298914552,False,stim\morph\3&4 80.jpg,2019-02-19 10:50:44,5,0
80,LookAtMe1.2,42,2,2,2,2,81,26,1.0,0.3141213320195675,True,stim\4 M078C.jpg,2019-02-19 10:50:52,6,0
81,LookAtMe1.2,42,2,2,2,2,82,23,4.0,0.4799283556640148,False,stim\morph\3&4 40.jpg,2019-02-19 10:51:02,3,0
82,LookAtMe1.2,42,2,2,2,2,83,34,2.0,1.0134790493175387,False,stim\morph\5&6 60.jpg,2019-02-19 10:51:11,4,1
83,LookAtMe1.2,42,2,2,2,2,84,36,4.0,1.056700042448938,False,stim\6 F053C.jpg,2019-02-19 10:51:21,6,1
84,LookAtMe1.2,42,2,2,2,2,85,31,1.0,0.5788416191935539,False,stim\5 F053C + F048C.jpg,2019-02-19 10:51:30,1,1
85,LookAtMe1.2,42,2,2,2,2,86,22,4.0,0.416936787776649,False,stim\morph\3&4 20.jpg,2019-02-19 10:51:38,2,0
86,LookAtMe1.2,42,2,2,2,2,87,36,5.0,1.4500728333368895,True,stim\6 F053C.jpg,2019-02-19 10:51:47,6,1
87,LookAtMe1.2,42,2,2,2,2,88,26,4.0,1.1851311000064015,False,stim\4 M078C.jpg,2019-02-19 10:51:55,6,0
88,LookAtMe1.2,42,2,2,2,2,89,35,3.0,0.6922353953123093,False,stim\morph\5&6 80.jpg,2019-02-19 10:52:05,5,1
89,LookAtMe1.2,42,2,2,2,2,90,21,1.0,0.5650927480310202,False,stim\3 M078C + M057C.jpg,2019-02-19 10:52:14,1,0
90,LookAtMe1.2,42,2,2,2,2,91,35,2.0,1.0905731385573745,False,stim\morph\5&6 80.jpg,2019-02-19 10:52:22,5,1
91,LookAtMe1.2,42,2,2,2,2,92,21,1.0,0.744605977088213,False,stim\3 M078C + M057C.jpg,2019-02-19 10:52:32,1,0
92,LookAtMe1.2,42,2,2,2,2,93,36,5.0,0.4928422216325998,False,stim\6 F053C.jpg,2019-02-19 10:52:41,6,1
93,LookAtMe1.2,42,2,2,2,2,94,32,4.0,0.8608211586251855,False,stim\morph\5&6 20.jpg,2019-02-19 10:52:50,2,1
94,LookAtMe1.2,42,2,2,2,2,95,31,2.0,0.8831604439765215,False,stim\5 F053C + F048C.jpg,2019-02-19 10:52:59,1,1
95,LookAtMe1.2,42,2,2,2,2,96,36,4.0,0.7161091761663556,True,stim\6 F053C.jpg,2019-02-19 10:53:09,6,1
96,LookAtMe1.2,42,2,2,2,2,97,25,1.0,0.3191635059192776,False,stim\morph\3&4 80.jpg,2019-02-19 10:53:17,5,0
97,LookAtMe1.2,42,2,2,2,2,98,34,3.0,0.7440368877723813,False,stim\morph\5&6 60.jpg,2019-02-19 10:53:27,4,1
98,LookAtMe1.2,42,2,2,2,2,99,26,4.0,0.7532066069543362,False,stim\4 M078C.jpg,2019-02-19 10:53:35,6,0
99,LookAtMe1.2,42,2,2,2,2,100,33,2.0,0.6326980208978057,False,stim\morph\5&6 40.jpg,2019-02-19 10:53:45,3,1
100,LookAtMe1.2,42,2,2,2,2,101,26,4.0,0.662758163176477,True,stim\4 M078C.jpg,2019-02-19 10:53:53,6,0
101,LookAtMe1.2,42,2,2,2,2,102,22,3.0,0.5033433204516768,False,stim\morph\3&4 20.jpg,2019-02-19 10:54:02,2,0
102,LookAtMe1.2,42,2,2,2,2,103,23,3.0,0.98569165635854,False,stim\morph\3&4 40.jpg,2019-02-19 10:54:10,3,0
103,LookAtMe1.2,42,2,2,2,2,104,24,3.0,0.8636302445083857,False,stim\morph\3&4 60.jpg,2019-02-19 10:54:19,4,0
104,LookAtMe1.2,42,2,2,2,2,105,34,3.0,0.7652797605842352,False,stim\morph\5&6 60.jpg,2019-02-19 10:54:29,4,1
105,LookAtMe1.2,42,2,2,2,2,106,36,5.0,0.7881202287971973,False,stim\6 F053C.jpg,2019-02-19 10:54:37,6,1
106,LookAtMe1.2,42,2,2,2,2,107,32,4.0,0.759572047740221,False,stim\morph\5&6 20.jpg,2019-02-19 10:54:47,2,1
107,LookAtMe1.2,42,2,2,2,2,108,26,2.0,0.5003070794045925,True,stim\4 M078C.jpg,2019-02-19 10:54:57,6,0
108,LookAtMe1.2,42,2,2,2,2,109,33,2.0,0.9580593053251504,False,stim\morph\5&6 40.jpg,2019-02-19 10:55:06,3,1
109,LookAtMe1.2,42,2,2,2,2,110,35,3.0,0.5973303904756904,False,stim\morph\5&6 80.jpg,2019-02-19 10:55:15,5,1
110,LookAtMe1.2,42,2,2,2,2,111,21,1.0,0.3035772666335106,False,stim\3 M078C + M057C.jpg,2019-02-19 10:55:23,1,0
111,LookAtMe1.2,42,2,2,2,2,112,26,5.0,0.421572427265346,False,stim\4 M078C.jpg,2019-02-19 10:55:33,6,0
112,LookAtMe1.2,42,2,2,2,2,113,31,1.0,0.3420814936980605,False,stim\5 F053C + F048C.jpg,2019-02-19 10:55:42,1,1
113,LookAtMe1.2,42,2,2,2,2,114,23,4.0,0.8389872619882226,False,stim\morph\3&4 40.jpg,2019-02-19 10:55:51,3,0
114,LookAtMe1.2,42,2,2,2,2,115,25,1.0,0.4178667403757572,False,stim\morph\3&4 80.jpg,2019-02-19 10:56:00,5,0
115,LookAtMe1.2,42,2,2,2,2,116,36,4.0,0.546695620752871,True,stim\6 F053C.jpg,2019-02-19 10:56:09,6,1
116,LookAtMe1.2,42,2,2,2,2,117,24,1.0,0.3332197554409504,False,stim\morph\3&4 60.jpg,2019-02-19 10:56:19,4,0
117,LookAtMe1.2,42,2,2,2,2,118,22,1.0,0.6853282079100609,False,stim\morph\3&4 20.jpg,2019-02-19 10:56:27,2,0
118,LookAtMe1.2,42,2,2,2,2,119,24,1.0,0.4040166120976209,False,stim\morph\3&4 60.jpg,2019-02-19 10:56:37,4,0
119,LookAtMe1.2,42,2,2,2,2,120,33,1.0,0.6319522568956017,False,stim\morph\5&6 40.jpg,2019-02-19 10:56:46,3,1
120,LookAtMe1.2,42,2,2,2,2,121,34,3.0,0.465548200532794,False,stim\morph\5&6 60.jpg,2019-02-19 10:56:56,4,1
121,LookAtMe1.2,42,2,2,2,2,122,36,5.0,0.6044899709522724,False,stim\6 F053C.jpg,2019-02-19 10:57:05,6,1
122,LookAtMe1.2,42,2,2,2,2,123,22,1.0,0.3624184522777796,False,stim\morph\3&4 20.jpg,2019-02-19 10:57:15,2,0
123,LookAtMe1.2,42,2,2,2,2,124,26,1.0,0.3150732181966305,True,stim\4 M078C.jpg,2019-02-19 10:57:23,6,0
124,LookAtMe1.2,42,2,2,2,2,125,32,4.0,0.5254665687680244,False,stim\morph\5&6 20.jpg,2019-02-19 10:57:32,2,1
125,LookAtMe1.2,42,2,2,2,2,126,25,1.0,0.5140195935964584,False,stim\morph\3&4 80.jpg,2019-02-19 10:57:41,5,0
126,LookAtMe1.2,42,2,2,2,2,127,21,1.0,0.4409641092643142,False,stim\3 M078C + M057C.jpg,2019-02-19 10:57:49,1,0
127,LookAtMe1.2,42,2,2,2,2,128,23,1.0,1.2868471406400204,False,stim\morph\3&4 40.jpg,2019-02-19 10:57:59,3,0
128,LookAtMe1.2,42,2,2,2,2,129,36,1.0,1.1559552401304245,True,stim\6 F053C.jpg,2019-02-19 10:58:07,6,1
129,LookAtMe1.2,42,2,2,2,2,130,26,3.0,0.3993971981108188,False,stim\4 M078C.jpg,2019-02-19 10:58:17,6,0
130,LookAtMe1.2,42,2,2,2,2,131,35,1.0,0.3568396409973502,False,stim\morph\5&6 80.jpg,2019-02-19 10:58:26,5,1
131,LookAtMe1.2,42,2,2,2,2,132,31,1.0,0.5745013412088156,False,stim\5 F053C + F048C.jpg,2019-02-19 10:58:36,1,1
132,LookAtMe1.2,42,2,2,2,2,133,26,4.0,0.8383057983592153,False,stim\4 M078C.jpg,2019-02-19 10:58:45,6,0
133,LookAtMe1.2,42,2,2,2,2,134,25,1.0,0.6533105093985796,False,stim\morph\3&4 80.jpg,2019-02-19 10:58:53,5,0
134,LookAtMe1.2,42,2,2,2,2,135,31,3.0,0.8389551118016243,False,stim\5 F053C + F048C.jpg,2019-02-19 10:59:02,1,1
135,LookAtMe1.2,42,2,2,2,2,136,23,1.0,0.4141445280984044,False,stim\morph\3&4 40.jpg,2019-02-19 10:59:10,3,0
136,LookAtMe1.2,42,2,2,2,2,137,36,5.0,0.7254279283806682,False,stim\6 F053C.jpg,2019-02-19 10:59:19,6,1
137,LookAtMe1.2,42,2,2,2,2,138,26,1.0,0.2682168474420905,True,stim\4 M078C.jpg,2019-02-19 10:59:29,6,0
138,LookAtMe1.2,42,2,2,2,2,139,22,1.0,0.7600888544693589,False,stim\morph\3&4 20.jpg,2019-02-19 10:59:39,2,0
139,LookAtMe1.2,42,2,2,2,2,140,21,1.0,0.6549153160303831,False,stim\3 M078C + M057C.jpg,2019-02-19 10:59:49,1,0
140,LookAtMe1.2,42,2,2,2,2,141,24,1.0,0.7135551879182458,False,stim\morph\3&4 60.jpg,2019-02-19 10:59:58,4,0
141,LookAtMe1.2,42,2,2,2,2,142,33,1.0,0.7020562309771776,False,stim\morph\5&6 40.jpg,2019-02-19 11:00:07,3,1
142,LookAtMe1.2,42,2,2,2,2,143,36,4.0,0.7631569458171725,True,stim\6 F053C.jpg,2019-02-19 11:00:16,6,1
143,LookAtMe1.2,42,2,2,2,2,144,32,4.0,0.7674942193552852,False,stim\morph\5&6 20.jpg,2019-02-19 11:00:24,2,1
144,LookAtMe1.2,42,2,2,2,2,145,34,1.0,0.3880968512967229,False,stim\morph\5&6 60.jpg,2019-02-19 11:00:34,4,1
145,LookAtMe1.2,42,2,2,2,2,146,36,4.0,0.6195329632610083,True,stim\6 F053C.jpg,2019-02-19 11:00:44,6,1
146,LookAtMe1.2,42,2,2,2,2,147,35,1.0,0.3467591991648078,False,stim\morph\5&6 80.jpg,2019-02-19 11:00:52,5,1
147,LookAtMe1.2,42,2,2,2,2,148,22,3.0,0.8334171641618013,False,stim\morph\3&4 20.jpg,2019-02-19 11:01:02,2,0
148,LookAtMe1.2,42,2,2,2,2,149,33,1.0,0.9361445838585496,False,stim\morph\5&6 40.jpg,2019-02-19 11:01:10,3,1
149,LookAtMe1.2,42,2,2,2,2,150,24,1.0,0.8087973175570369,False,stim\morph\3&4 60.jpg,2019-02-19 11:01:20,4,0
150,LookAtMe1.2,42,2,2,2,2,151,26,3.0,0.7133824182674289,True,stim\4 M078C.jpg,2019-02-19 11:01:28,6,0
151,LookAtMe1.2,42,2,2,2,2,152,32,1.0,0.3773247301578522,False,stim\morph\5&6 20.jpg,2019-02-19 11:01:38,2,1
152,LookAtMe1.2,42,2,2,2,2,153,35,1.0,0.4596689185127616,False,stim\morph\5&6 80.jpg,2019-02-19 11:01:47,5,1
153,LookAtMe1.2,42,2,2,2,2,154,26,1.0,0.6608228413388133,False,stim\4 M078C.jpg,2019-02-19 11:01:57,6,0
154,LookAtMe1.2,42,2,2,2,2,155,23,2.0,0.705094875767827,False,stim\morph\3&4 40.jpg,2019-02-19 11:02:07,3,0
155,LookAtMe1.2,42,2,2,2,2,156,34,1.0,0.7576595610007644,False,stim\morph\5&6 60.jpg,2019-02-19 11:02:16,4,1
156,LookAtMe1.2,42,2,2,2,2,157,25,1.0,0.9838236393406988,False,stim\morph\3&4 80.jpg,2019-02-19 11:02:24,5,0
157,LookAtMe1.2,42,2,2,2,2,158,31,1.0,0.5759057346731424,False,stim\5 F053C + F048C.jpg,2019-02-19 11:02:34,1,1
158,LookAtMe1.2,42,2,2,2,2,159,21,1.0,-0.7061335984617472,False,stim\3 M078C + M057C.jpg,2019-02-19 11:02:44,1,0
159,LookAtMe1.2,42,2,2,2,2,160,36,4.0,1.0678450474515555,False,stim\6 F053C.jpg,2019-02-19 11:02:54,6,1
