expName,subject,pairs,cs1,cs2,block,trial,condition,rating,rt,shock,picName,timestamp,morphing level,gender,ROI_change,ROI
LookAtMe,22,2,1,2,1,1,31,,-1.0,False,stim\5 F053C + F048C.jpg,2019-01-04 15:47:42,1,1,0.0,eyes
LookAtMe,22,2,1,2,1,2,36,3.0,0.4726762315258384,False,stim\6 F053C.jpg,2019-01-04 15:47:51,6,1,0.0,eyes
LookAtMe,22,2,1,2,1,3,26,2.0,0.9764020494185388,False,stim\3 M078C + M057C.jpg,2019-01-04 15:47:59,6,0,0.0,mouth_nose
LookAtMe,22,2,1,2,1,4,21,4.0,0.6187868975102901,False,stim\4 M078C.jpg,2019-01-04 15:48:09,1,0,0.0,mouth_nose
LookAtMe,22,2,1,2,1,5,31,4.0,1.527009477838874,False,stim\5 F053C + F048C.jpg,2019-01-04 15:48:17,1,1,0.0,eyes
LookAtMe,22,2,1,2,1,6,21,3.0,0.4017207268625498,False,stim\4 M078C.jpg,2019-01-04 15:48:25,1,0,0.0,mouth_nose
LookAtMe,22,2,1,2,1,7,26,2.0,0.4273717841133475,False,stim\3 M078C + M057C.jpg,2019-01-04 15:48:34,6,0,0.0,mouth_nose
LookAtMe,22,2,1,2,1,8,36,3.0,0.8414096450433135,False,stim\6 F053C.jpg,2019-01-04 15:48:43,6,1,0.0,eyes
LookAtMe,22,2,1,2,1,9,21,2.0,0.7724615759216249,False,stim\4 M078C.jpg,2019-01-04 15:48:52,1,0,0.0,mouth_nose
LookAtMe,22,2,1,2,1,10,26,1.0,0.725483815651387,False,stim\3 M078C + M057C.jpg,2019-01-04 15:49:00,6,0,0.0,mouth_nose
LookAtMe,22,2,1,2,1,11,36,2.0,0.3546444126404822,False,stim\6 F053C.jpg,2019-01-04 15:49:09,6,1,0.0,eyes
LookAtMe,22,2,1,2,1,12,31,2.0,0.3984837722964585,False,stim\5 F053C + F048C.jpg,2019-01-04 15:49:18,1,1,0.0,eyes
LookAtMe,22,2,1,2,1,13,26,1.0,0.4760297681204974,False,stim\3 M078C + M057C.jpg,2019-01-04 15:49:28,6,0,0.0,mouth_nose
LookAtMe,22,2,1,2,1,14,31,1.0,0.5353907663375139,False,stim\5 F053C + F048C.jpg,2019-01-04 15:49:38,1,1,0.0,eyes
LookAtMe,22,2,1,2,1,15,36,1.0,0.4456601426936686,False,stim\6 F053C.jpg,2019-01-04 15:49:47,6,1,0.0,eyes
LookAtMe,22,2,1,2,1,16,21,1.0,0.4821848794817924,False,stim\4 M078C.jpg,2019-01-04 15:49:55,1,0,0.0,mouth_nose
LookAtMe,22,2,1,2,1,17,26,1.0,0.4911091160029173,True,stim\3 M078C + M057C.jpg,2019-01-04 15:50:03,6,0,0.0,mouth_nose
LookAtMe,22,2,1,2,1,18,31,3.0,0.4503736034967005,False,stim\5 F053C + F048C.jpg,2019-01-04 15:50:13,1,1,0.0,eyes
LookAtMe,22,2,1,2,1,19,21,3.0,0.4016074500977993,False,stim\4 M078C.jpg,2019-01-04 15:50:22,1,0,0.0,mouth_nose
LookAtMe,22,2,1,2,1,20,36,2.0,0.4085984672419727,True,stim\6 F053C.jpg,2019-01-04 15:50:31,6,1,0.0,eyes
LookAtMe,22,2,1,2,1,21,31,2.0,0.438670327886939,False,stim\5 F053C + F048C.jpg,2019-01-04 15:50:39,1,1,0.0,eyes
LookAtMe,22,2,1,2,1,22,36,4.0,0.4252985464408993,True,stim\6 F053C.jpg,2019-01-04 15:50:49,6,1,0.0,eyes
LookAtMe,22,2,1,2,1,23,26,2.0,0.4172841310501098,True,stim\3 M078C + M057C.jpg,2019-01-04 15:50:58,6,0,0.0,mouth_nose
LookAtMe,22,2,1,2,1,24,21,3.0,0.4042828283272683,False,stim\4 M078C.jpg,2019-01-04 15:51:07,1,0,0.0,mouth_nose
LookAtMe,22,2,1,2,1,25,26,4.0,0.4763726033270359,False,stim\3 M078C + M057C.jpg,2019-01-04 15:51:17,6,0,0.0,mouth_nose
LookAtMe,22,2,1,2,1,26,36,4.0,0.6352090421132743,True,stim\6 F053C.jpg,2019-01-04 15:51:27,6,1,0.0,eyes
LookAtMe,22,2,1,2,1,27,31,2.0,0.6339275413192809,False,stim\5 F053C + F048C.jpg,2019-01-04 15:51:35,1,1,0.0,eyes
LookAtMe,22,2,1,2,1,28,21,3.0,0.4808949655853212,False,stim\4 M078C.jpg,2019-01-04 15:51:44,1,0,0.0,mouth_nose
LookAtMe,22,2,1,2,1,29,31,1.0,0.6243458786047995,False,stim\5 F053C + F048C.jpg,2019-01-04 15:51:53,1,1,0.0,eyes
LookAtMe,22,2,1,2,1,30,21,3.0,0.5879488405771554,False,stim\4 M078C.jpg,2019-01-04 15:52:03,1,0,0.0,mouth_nose
LookAtMe,22,2,1,2,1,31,26,3.0,0.398640617262572,True,stim\3 M078C + M057C.jpg,2019-01-04 15:52:12,6,0,0.0,mouth_nose
LookAtMe,22,2,1,2,1,32,36,1.0,0.4550846605561673,False,stim\6 F053C.jpg,2019-01-04 15:52:20,6,1,0.0,eyes
LookAtMe,22,2,1,2,1,33,21,2.0,0.3803210090845823,False,stim\4 M078C.jpg,2019-01-04 15:52:29,1,0,0.0,mouth_nose
LookAtMe,22,2,1,2,1,34,36,5.0,0.5059781353920698,True,stim\6 F053C.jpg,2019-01-04 15:52:38,6,1,0.0,eyes
LookAtMe,22,2,1,2,1,35,26,3.0,0.4205601466819644,True,stim\3 M078C + M057C.jpg,2019-01-04 15:52:47,6,0,0.0,mouth_nose
LookAtMe,22,2,1,2,1,36,31,1.0,0.4588396241888404,False,stim\5 F053C + F048C.jpg,2019-01-04 15:52:57,1,1,0.0,eyes
LookAtMe,22,2,1,2,1,37,36,5.0,0.5523663749918342,False,stim\6 F053C.jpg,2019-01-04 15:53:06,6,1,0.0,eyes
LookAtMe,22,2,1,2,1,38,31,1.0,0.4737855633720755,False,stim\5 F053C + F048C.jpg,2019-01-04 15:53:15,1,1,0.0,eyes
LookAtMe,22,2,1,2,1,39,26,4.0,0.4242457021027803,True,stim\3 M078C + M057C.jpg,2019-01-04 15:53:24,6,0,0.0,mouth_nose
LookAtMe,22,2,1,2,1,40,21,2.0,0.4955290178768337,False,stim\4 M078C.jpg,2019-01-04 15:53:33,1,0,0.0,mouth_nose
LookAtMe,22,2,1,2,1,41,26,4.0,0.5436972379684448,False,stim\3 M078C + M057C.jpg,2019-01-04 15:53:43,6,0,0.0,mouth_nose
LookAtMe,22,2,1,2,1,42,31,1.0,0.4609555280767381,False,stim\5 F053C + F048C.jpg,2019-01-04 15:53:53,1,1,0.0,eyes
LookAtMe,22,2,1,2,1,43,36,4.0,0.3792510381899774,True,stim\6 F053C.jpg,2019-01-04 15:54:03,6,1,0.0,eyes
LookAtMe,22,2,1,2,1,44,21,2.0,0.6386503162793815,False,stim\4 M078C.jpg,2019-01-04 15:54:11,1,0,0.0,mouth_nose
LookAtMe,22,2,1,2,1,45,26,4.0,0.3814477687701583,True,stim\3 M078C + M057C.jpg,2019-01-04 15:54:21,6,0,0.0,mouth_nose
LookAtMe,22,2,1,2,1,46,21,2.0,0.5446839784272015,False,stim\4 M078C.jpg,2019-01-04 15:54:30,1,0,0.0,mouth_nose
LookAtMe,22,2,1,2,1,47,36,4.0,0.3865377171896398,True,stim\6 F053C.jpg,2019-01-04 15:54:38,6,1,0.0,eyes
LookAtMe,22,2,1,2,1,48,31,1.0,0.4359420672990381,False,stim\5 F053C + F048C.jpg,2019-01-04 15:54:46,1,1,0.0,eyes
LookAtMe,22,2,1,2,2,49,22,,-1.0,False,stim\morph\3&4 80.jpg,2019-01-04 15:59:01,2,0,0.0,mouth_nose
LookAtMe,22,2,1,2,2,50,26,3.0,1.0161150651983917,True,stim\3 M078C + M057C.jpg,2019-01-04 15:59:10,6,0,0.0,mouth_nose
LookAtMe,22,2,1,2,2,51,25,2.0,0.5684432806447148,False,stim\morph\3&4 20.jpg,2019-01-04 15:59:20,5,0,0.0,mouth_nose
LookAtMe,22,2,1,2,2,52,24,3.0,0.5246889544650912,False,stim\morph\3&4 40.jpg,2019-01-04 15:59:29,4,0,0.0,mouth_nose
LookAtMe,22,2,1,2,2,53,26,4.0,1.5027886549942195,False,stim\3 M078C + M057C.jpg,2019-01-04 15:59:38,6,0,0.0,mouth_nose
LookAtMe,22,2,1,2,2,54,33,,-1.0,False,stim\morph\5&6 40.jpg,2019-01-04 15:59:46,3,1,0.0,eyes
LookAtMe,22,2,1,2,2,55,35,3.0,1.307942783460021,False,stim\morph\5&6 80.jpg,2019-01-04 15:59:56,5,1,0.0,eyes
LookAtMe,22,2,1,2,2,56,23,2.0,1.5457605593837798,False,stim\morph\3&4 60.jpg,2019-01-04 16:00:05,3,0,0.0,mouth_nose
LookAtMe,22,2,1,2,2,57,31,,-1.0,False,stim\5 F053C + F048C.jpg,2019-01-04 16:00:14,1,1,0.0,eyes
LookAtMe,22,2,1,2,2,58,36,4.0,1.029175260104239,True,stim\6 F053C.jpg,2019-01-04 16:00:24,6,1,0.0,eyes
LookAtMe,22,2,1,2,2,59,21,2.0,0.5513757285661995,False,stim\4 M078C.jpg,2019-01-04 16:00:33,1,0,0.0,mouth_nose
LookAtMe,22,2,1,2,2,60,32,4.0,0.6348995589651167,False,stim\morph\5&6 20.jpg,2019-01-04 16:00:42,2,1,0.0,eyes
LookAtMe,22,2,1,2,2,61,36,4.0,0.4132356089539826,False,stim\6 F053C.jpg,2019-01-04 16:00:52,6,1,0.0,eyes
LookAtMe,22,2,1,2,2,62,34,2.0,0.3766309469938278,False,stim\morph\5&6 60.jpg,2019-01-04 16:01:01,4,1,0.0,eyes
LookAtMe,22,2,1,2,2,63,26,3.0,0.4647741913795471,False,stim\3 M078C + M057C.jpg,2019-01-04 16:01:11,6,0,0.0,mouth_nose
LookAtMe,22,2,1,2,2,64,25,,-1.0,False,stim\morph\3&4 20.jpg,2019-01-04 16:01:20,5,0,0.0,mouth_nose
LookAtMe,22,2,1,2,2,65,35,1.0,0.4273053798824548,False,stim\morph\5&6 80.jpg,2019-01-04 16:01:29,5,1,0.0,eyes
LookAtMe,22,2,1,2,2,66,36,5.0,0.3424609871581197,True,stim\6 F053C.jpg,2019-01-04 16:01:37,6,1,0.0,eyes
LookAtMe,22,2,1,2,2,67,23,1.0,1.2487632688134909,False,stim\morph\3&4 60.jpg,2019-01-04 16:01:46,3,0,0.0,mouth_nose
LookAtMe,22,2,1,2,2,68,26,2.0,0.507430603262037,True,stim\3 M078C + M057C.jpg,2019-01-04 16:01:56,6,0,0.0,mouth_nose
LookAtMe,22,2,1,2,2,69,32,4.0,1.2442409065552056,False,stim\morph\5&6 20.jpg,2019-01-04 16:02:04,2,1,0.0,eyes
LookAtMe,22,2,1,2,2,70,22,3.0,0.4573069303296506,False,stim\morph\3&4 80.jpg,2019-01-04 16:02:13,2,0,0.0,mouth_nose
LookAtMe,22,2,1,2,2,71,36,5.0,0.5566868223249912,False,stim\6 F053C.jpg,2019-01-04 16:02:22,6,1,0.0,eyes
LookAtMe,22,2,1,2,2,72,34,3.0,0.5107979620806873,False,stim\morph\5&6 60.jpg,2019-01-04 16:02:32,4,1,0.0,eyes
LookAtMe,22,2,1,2,2,73,31,1.0,0.5720930802635849,False,stim\5 F053C + F048C.jpg,2019-01-04 16:02:41,1,1,0.0,eyes
LookAtMe,22,2,1,2,2,74,21,1.0,0.6048436239361763,False,stim\4 M078C.jpg,2019-01-04 16:02:50,1,0,0.0,mouth_nose
LookAtMe,22,2,1,2,2,75,24,2.0,0.4214906999841332,False,stim\morph\3&4 40.jpg,2019-01-04 16:02:58,4,0,0.0,mouth_nose
LookAtMe,22,2,1,2,2,76,33,2.0,0.6043184036388993,False,stim\morph\5&6 40.jpg,2019-01-04 16:03:06,3,1,0.0,eyes
LookAtMe,22,2,1,2,2,77,24,2.0,0.4255401236005127,False,stim\morph\3&4 40.jpg,2019-01-04 16:03:16,4,0,0.0,mouth_nose
LookAtMe,22,2,1,2,2,78,33,1.0,0.5137918372638524,False,stim\morph\5&6 40.jpg,2019-01-04 16:03:25,3,1,0.0,eyes
LookAtMe,22,2,1,2,2,79,32,1.0,0.4408895932137966,False,stim\morph\5&6 20.jpg,2019-01-04 16:03:34,2,1,0.0,eyes
LookAtMe,22,2,1,2,2,80,25,2.0,1.1684830030426383,False,stim\morph\3&4 20.jpg,2019-01-04 16:03:42,5,0,0.0,mouth_nose
LookAtMe,22,2,1,2,2,81,26,2.0,0.5300595411099494,True,stim\3 M078C + M057C.jpg,2019-01-04 16:03:51,6,0,0.0,mouth_nose
LookAtMe,22,2,1,2,2,82,23,1.0,0.4715434624813497,False,stim\morph\3&4 60.jpg,2019-01-04 16:04:01,3,0,0.0,mouth_nose
LookAtMe,22,2,1,2,2,83,34,1.0,0.5550763071514666,False,stim\morph\5&6 60.jpg,2019-01-04 16:04:09,4,1,0.0,eyes
LookAtMe,22,2,1,2,2,84,36,4.0,0.4970328668132424,False,stim\6 F053C.jpg,2019-01-04 16:04:18,6,1,0.0,eyes
LookAtMe,22,2,1,2,2,85,31,1.0,0.3968191724270582,False,stim\5 F053C + F048C.jpg,2019-01-04 16:04:28,1,1,0.0,eyes
LookAtMe,22,2,1,2,2,86,22,3.0,1.310382593423128,False,stim\morph\3&4 80.jpg,2019-01-04 16:04:38,2,0,0.0,mouth_nose
LookAtMe,22,2,1,2,2,87,36,5.0,0.5584698063321412,True,stim\6 F053C.jpg,2019-01-04 16:04:48,6,1,0.0,eyes
LookAtMe,22,2,1,2,2,88,26,3.0,0.9210288785398006,False,stim\3 M078C + M057C.jpg,2019-01-04 16:04:57,6,0,0.0,mouth_nose
LookAtMe,22,2,1,2,2,89,35,1.0,0.5172105762176216,False,stim\morph\5&6 80.jpg,2019-01-04 16:05:06,5,1,0.0,eyes
LookAtMe,22,2,1,2,2,90,21,1.0,1.3174219862557948,False,stim\4 M078C.jpg,2019-01-04 16:05:16,1,0,0.0,mouth_nose
LookAtMe,22,2,1,2,2,91,35,1.0,0.4603548902086913,False,stim\morph\5&6 80.jpg,2019-01-04 16:05:24,5,1,0.0,eyes
LookAtMe,22,2,1,2,2,92,21,1.0,0.5192447528243065,False,stim\4 M078C.jpg,2019-01-04 16:05:34,1,0,0.0,mouth_nose
LookAtMe,22,2,1,2,2,93,36,5.0,0.4153851657174527,False,stim\6 F053C.jpg,2019-01-04 16:05:42,6,1,0.0,eyes
LookAtMe,22,2,1,2,2,94,32,3.0,0.7539661936461926,False,stim\morph\5&6 20.jpg,2019-01-04 16:05:51,2,1,0.0,eyes
LookAtMe,22,2,1,2,2,95,31,1.0,0.4633679953403771,False,stim\5 F053C + F048C.jpg,2019-01-04 16:06:00,1,1,0.0,eyes
LookAtMe,22,2,1,2,2,96,36,5.0,0.4470702446997165,True,stim\6 F053C.jpg,2019-01-04 16:06:10,6,1,0.0,eyes
LookAtMe,22,2,1,2,2,97,25,1.0,0.4904808346182108,False,stim\morph\3&4 20.jpg,2019-01-04 16:06:18,5,0,0.0,mouth_nose
LookAtMe,22,2,1,2,2,98,34,1.0,0.49091741675511,False,stim\morph\5&6 60.jpg,2019-01-04 16:06:28,4,1,0.0,eyes
LookAtMe,22,2,1,2,2,99,26,2.0,0.4822699129581451,False,stim\3 M078C + M057C.jpg,2019-01-04 16:06:37,6,0,0.0,mouth_nose
LookAtMe,22,2,1,2,2,100,33,1.0,0.4206466819159686,False,stim\morph\5&6 40.jpg,2019-01-04 16:06:47,3,1,0.0,eyes
LookAtMe,22,2,1,2,2,101,26,2.0,0.4873325182124972,True,stim\3 M078C + M057C.jpg,2019-01-04 16:06:55,6,0,0.0,mouth_nose
LookAtMe,22,2,1,2,2,102,22,3.0,0.4269294934347272,False,stim\morph\3&4 80.jpg,2019-01-04 16:07:05,2,0,0.0,mouth_nose
LookAtMe,22,2,1,2,2,103,23,2.0,0.6428181249648333,False,stim\morph\3&4 60.jpg,2019-01-04 16:07:14,3,0,0.0,mouth_nose
LookAtMe,22,2,1,2,2,104,24,3.0,0.5490882559679449,False,stim\morph\3&4 40.jpg,2019-01-04 16:07:22,4,0,0.0,mouth_nose
LookAtMe,22,2,1,2,2,105,34,1.0,0.5147458272986114,False,stim\morph\5&6 60.jpg,2019-01-04 16:07:30,4,1,0.0,eyes
LookAtMe,22,2,1,2,2,106,36,4.0,0.6843447727151215,False,stim\6 F053C.jpg,2019-01-04 16:07:40,6,1,0.0,eyes
LookAtMe,22,2,1,2,2,107,32,2.0,0.697934394236654,False,stim\morph\5&6 20.jpg,2019-01-04 16:07:49,2,1,0.0,eyes
LookAtMe,22,2,1,2,2,108,26,3.0,1.3872275943867862,True,stim\3 M078C + M057C.jpg,2019-01-04 16:07:57,6,0,0.0,mouth_nose
LookAtMe,22,2,1,2,2,109,33,1.0,0.4974955888465047,False,stim\morph\5&6 40.jpg,2019-01-04 16:08:07,3,1,0.0,eyes
LookAtMe,22,2,1,2,2,110,35,1.0,0.5916668470017612,False,stim\morph\5&6 80.jpg,2019-01-04 16:08:17,5,1,0.0,eyes
LookAtMe,22,2,1,2,2,111,21,1.0,0.582987193018198,False,stim\4 M078C.jpg,2019-01-04 16:08:26,1,0,0.0,mouth_nose
LookAtMe,22,2,1,2,2,112,26,3.0,1.1154928533360362,False,stim\3 M078C + M057C.jpg,2019-01-04 16:08:36,6,0,0.0,mouth_nose
LookAtMe,22,2,1,2,2,113,31,1.0,0.5352675737813115,False,stim\5 F053C + F048C.jpg,2019-01-04 16:08:45,1,1,0.0,eyes
LookAtMe,22,2,1,2,2,114,23,1.0,0.6342829959467053,False,stim\morph\3&4 60.jpg,2019-01-04 16:08:54,3,0,0.0,mouth_nose
LookAtMe,22,2,1,2,2,115,25,1.0,0.366675500292331,False,stim\morph\3&4 20.jpg,2019-01-04 16:09:03,5,0,0.0,mouth_nose
LookAtMe,22,2,1,2,2,116,36,5.0,0.8566704764962196,True,stim\6 F053C.jpg,2019-01-04 16:09:13,6,1,0.0,eyes
LookAtMe,22,2,1,2,2,117,24,1.0,0.4516671234741807,False,stim\morph\3&4 40.jpg,2019-01-04 16:09:23,4,0,0.0,mouth_nose
LookAtMe,22,2,1,2,2,118,22,2.0,0.3894498650915921,False,stim\morph\3&4 80.jpg,2019-01-04 16:09:32,2,0,0.0,mouth_nose
LookAtMe,22,2,1,2,2,119,24,1.0,0.5349487760104239,False,stim\morph\3&4 40.jpg,2019-01-04 16:09:42,4,0,0.0,mouth_nose
LookAtMe,22,2,1,2,2,120,33,1.0,0.4407135182991624,False,stim\morph\5&6 40.jpg,2019-01-04 16:09:50,3,1,0.0,eyes
LookAtMe,22,2,1,2,2,121,34,1.0,0.4503294345922768,False,stim\morph\5&6 60.jpg,2019-01-04 16:10:00,4,1,0.0,eyes
LookAtMe,22,2,1,2,2,122,36,4.0,0.3805878260172903,False,stim\6 F053C.jpg,2019-01-04 16:10:08,6,1,0.0,eyes
LookAtMe,22,2,1,2,2,123,22,1.0,0.3290188959799707,False,stim\morph\3&4 80.jpg,2019-01-04 16:10:18,2,0,0.0,mouth_nose
LookAtMe,22,2,1,2,2,124,26,2.0,0.4008036949671805,True,stim\3 M078C + M057C.jpg,2019-01-04 16:10:26,6,0,0.0,mouth_nose
LookAtMe,22,2,1,2,2,125,32,1.0,0.3964673234149813,False,stim\morph\5&6 20.jpg,2019-01-04 16:10:35,2,1,0.0,eyes
LookAtMe,22,2,1,2,2,126,25,1.0,0.4462755038402974,False,stim\morph\3&4 20.jpg,2019-01-04 16:10:43,5,0,0.0,mouth_nose
LookAtMe,22,2,1,2,2,127,21,1.0,0.4756259378045797,False,stim\4 M078C.jpg,2019-01-04 16:10:53,1,0,0.0,mouth_nose
LookAtMe,22,2,1,2,2,128,23,3.0,1.064284486696124,False,stim\morph\3&4 60.jpg,2019-01-04 16:11:01,3,0,0.0,mouth_nose
LookAtMe,22,2,1,2,2,129,36,4.0,0.4637273568660021,True,stim\6 F053C.jpg,2019-01-04 16:11:10,6,1,0.0,eyes
LookAtMe,22,2,1,2,2,130,26,3.0,0.4469254189170897,False,stim\3 M078C + M057C.jpg,2019-01-04 16:11:19,6,0,0.0,mouth_nose
LookAtMe,22,2,1,2,2,131,35,1.0,0.4068190883845091,False,stim\morph\5&6 80.jpg,2019-01-04 16:11:29,5,1,0.0,eyes
LookAtMe,22,2,1,2,2,132,31,1.0,0.6581561765633523,False,stim\5 F053C + F048C.jpg,2019-01-04 16:11:37,1,1,0.0,eyes
LookAtMe,22,2,1,2,2,133,26,4.0,0.7110288427211344,False,stim\3 M078C + M057C.jpg,2019-01-04 16:11:47,6,0,0.0,mouth_nose
LookAtMe,22,2,1,2,2,134,25,1.0,0.465892537496984,False,stim\morph\3&4 20.jpg,2019-01-04 16:11:56,5,0,0.0,mouth_nose
LookAtMe,22,2,1,2,2,135,31,1.0,0.7000992749817669,False,stim\5 F053C + F048C.jpg,2019-01-04 16:12:05,1,1,0.0,eyes
LookAtMe,22,2,1,2,2,136,23,3.0,1.0409788927063346,False,stim\morph\3&4 60.jpg,2019-01-04 16:12:14,3,0,0.0,mouth_nose
LookAtMe,22,2,1,2,2,137,36,5.0,0.4200048795901239,False,stim\6 F053C.jpg,2019-01-04 16:12:24,6,1,0.0,eyes
LookAtMe,22,2,1,2,2,138,26,3.0,1.2050717403180895,True,stim\3 M078C + M057C.jpg,2019-01-04 16:12:33,6,0,0.0,mouth_nose
LookAtMe,22,2,1,2,2,139,22,2.0,0.3676234809681773,False,stim\morph\3&4 80.jpg,2019-01-04 16:12:42,2,0,0.0,mouth_nose
LookAtMe,22,2,1,2,2,140,21,1.0,0.6270576128736138,False,stim\4 M078C.jpg,2019-01-04 16:12:52,1,0,0.0,mouth_nose
LookAtMe,22,2,1,2,2,141,24,1.0,0.4225056846626103,False,stim\morph\3&4 40.jpg,2019-01-04 16:13:00,4,0,0.0,mouth_nose
LookAtMe,22,2,1,2,2,142,33,1.0,0.4275658866390586,False,stim\morph\5&6 40.jpg,2019-01-04 16:13:09,3,1,0.0,eyes
LookAtMe,22,2,1,2,2,143,36,4.0,0.4203735557384789,True,stim\6 F053C.jpg,2019-01-04 16:13:18,6,1,0.0,eyes
LookAtMe,22,2,1,2,2,144,32,2.0,0.3954192865639925,False,stim\morph\5&6 20.jpg,2019-01-04 16:13:27,2,1,0.0,eyes
LookAtMe,22,2,1,2,2,145,34,1.0,0.3928995518945157,False,stim\morph\5&6 60.jpg,2019-01-04 16:13:36,4,1,0.0,eyes
LookAtMe,22,2,1,2,2,146,36,3.0,0.3720220495015383,True,stim\6 F053C.jpg,2019-01-04 16:13:44,6,1,0.0,eyes
LookAtMe,22,2,1,2,2,147,35,1.0,0.4221066613681614,False,stim\morph\5&6 80.jpg,2019-01-04 16:13:54,5,1,0.0,eyes
LookAtMe,22,2,1,2,2,148,22,3.0,1.2339282021857798,False,stim\morph\3&4 80.jpg,2019-01-04 16:14:04,2,0,0.0,mouth_nose
LookAtMe,22,2,1,2,2,149,33,1.0,0.7360690450295806,False,stim\morph\5&6 40.jpg,2019-01-04 16:14:13,3,1,0.0,eyes
LookAtMe,22,2,1,2,2,150,24,2.0,0.3077952531166374,False,stim\morph\3&4 40.jpg,2019-01-04 16:14:22,4,0,0.0,mouth_nose
LookAtMe,22,2,1,2,2,151,26,4.0,0.326062879525125,True,stim\3 M078C + M057C.jpg,2019-01-04 16:14:31,6,0,0.0,mouth_nose
LookAtMe,22,2,1,2,2,152,32,,-1.0,False,stim\morph\5&6 20.jpg,2019-01-04 16:14:40,2,1,0.0,eyes
LookAtMe,22,2,1,2,2,153,35,1.0,0.4593645436689257,False,stim\morph\5&6 80.jpg,2019-01-04 16:14:48,5,1,0.0,eyes
LookAtMe,22,2,1,2,2,154,26,3.0,0.474493168760091,False,stim\3 M078C + M057C.jpg,2019-01-04 16:14:58,6,0,0.0,mouth_nose
LookAtMe,22,2,1,2,2,155,23,1.0,0.5131250959821045,False,stim\morph\3&4 60.jpg,2019-01-04 16:15:07,3,0,0.0,mouth_nose
LookAtMe,22,2,1,2,2,156,34,1.0,0.6251451265998185,False,stim\morph\5&6 60.jpg,2019-01-04 16:15:17,4,1,0.0,eyes
LookAtMe,22,2,1,2,2,157,25,1.0,1.048593984451145,False,stim\morph\3&4 20.jpg,2019-01-04 16:15:26,5,0,0.0,mouth_nose
LookAtMe,22,2,1,2,2,158,31,1.0,0.5188838890753686,False,stim\5 F053C + F048C.jpg,2019-01-04 16:15:36,1,1,0.0,eyes
LookAtMe,22,2,1,2,2,159,21,1.0,0.6318020219914615,False,stim\4 M078C.jpg,2019-01-04 16:15:46,1,0,0.0,mouth_nose
LookAtMe,22,2,1,2,2,160,36,5.0,0.4453149037435651,False,stim\6 F053C.jpg,2019-01-04 16:15:56,6,1,0.0,eyes
