,expName,subject,pairs,cs1,cs2,block,trial,condition,rating,rt,shock,picName,timestamp,morphing level,gender
0,LookAtMe,3,1,1,2,1,1,41,,-1.0,False,stim\7 F080C.jpg,2018-12-18 18:21:41,1,1
1,LookAtMe,3,1,1,2,1,2,46,2.0,0.3286030464805662,False,stim\8 F080C + F101C.jpg,2018-12-18 18:21:50,6,1
2,LookAtMe,3,1,1,2,1,3,16,3.0,0.5236998097971082,False,stim\1 M024C.jpg,2018-12-18 18:22:00,6,0
3,LookAtMe,3,1,1,2,1,4,11,4.0,0.804277058923617,False,stim\2 M024C + M010C.jpg,2018-12-18 18:22:10,1,0
4,LookAtMe,3,1,1,2,1,5,41,4.0,0.5097508269827813,False,stim\7 F080C.jpg,2018-12-18 18:22:19,1,1
5,LookAtMe,3,1,1,2,1,6,11,3.0,0.7357168954331428,False,stim\2 M024C + M010C.jpg,2018-12-18 18:22:27,1,0
6,LookAtMe,3,1,1,2,1,7,16,2.0,1.1326890070922673,False,stim\1 M024C.jpg,2018-12-18 18:22:37,6,0
7,LookAtMe,3,1,1,2,1,8,46,2.0,0.7600825449917465,False,stim\8 F080C + F101C.jpg,2018-12-18 18:22:46,6,1
8,LookAtMe,3,1,1,2,1,9,11,3.0,1.185285541927442,False,stim\2 M024C + M010C.jpg,2018-12-18 18:22:56,1,0
9,LookAtMe,3,1,1,2,1,10,16,,-1.0,False,stim\1 M024C.jpg,2018-12-18 18:23:05,6,0
10,LookAtMe,3,1,1,2,1,11,46,4.0,1.7569465476553887,False,stim\8 F080C + F101C.jpg,2018-12-18 18:23:15,6,1
11,LookAtMe,3,1,1,2,1,12,41,4.0,0.6253187977708876,False,stim\7 F080C.jpg,2018-12-18 18:23:23,1,1
12,LookAtMe,3,1,1,2,1,13,16,2.0,0.7419140730053186,False,stim\1 M024C.jpg,2018-12-18 18:23:33,6,0
13,LookAtMe,3,1,1,2,1,14,41,4.0,0.5140388230793178,False,stim\7 F080C.jpg,2018-12-18 18:23:42,1,1
14,LookAtMe,3,1,1,2,1,15,46,3.0,1.3578849730547518,False,stim\8 F080C + F101C.jpg,2018-12-18 18:23:50,6,1
15,LookAtMe,3,1,1,2,1,16,11,3.0,0.9178180645685644,False,stim\2 M024C + M010C.jpg,2018-12-18 18:24:00,1,0
16,LookAtMe,3,1,1,2,1,17,16,2.0,0.6431618614587933,True,stim\1 M024C.jpg,2018-12-18 18:24:09,6,0
17,LookAtMe,3,1,1,2,1,18,41,4.0,0.3557582520879805,False,stim\7 F080C.jpg,2018-12-18 18:24:19,1,1
18,LookAtMe,3,1,1,2,1,19,11,3.0,0.5098764230497181,False,stim\2 M024C + M010C.jpg,2018-12-18 18:24:29,1,0
19,LookAtMe,3,1,1,2,1,20,46,3.0,1.0052687276620418,True,stim\8 F080C + F101C.jpg,2018-12-18 18:24:38,6,1
20,LookAtMe,3,1,1,2,1,21,41,2.0,0.4826575180049985,False,stim\7 F080C.jpg,2018-12-18 18:24:48,1,1
21,LookAtMe,3,1,1,2,1,22,46,5.0,0.4502834626473486,True,stim\8 F080C + F101C.jpg,2018-12-18 18:24:56,6,1
22,LookAtMe,3,1,1,2,1,23,16,5.0,0.3546353986021131,True,stim\1 M024C.jpg,2018-12-18 18:25:05,6,0
23,LookAtMe,3,1,1,2,1,24,11,1.0,0.5879091790411621,False,stim\2 M024C + M010C.jpg,2018-12-18 18:25:15,1,0
24,LookAtMe,3,1,1,2,1,25,16,5.0,0.3608953743241727,False,stim\1 M024C.jpg,2018-12-18 18:25:24,6,0
25,LookAtMe,3,1,1,2,1,26,46,5.0,0.4196217814460397,True,stim\8 F080C + F101C.jpg,2018-12-18 18:25:33,6,1
26,LookAtMe,3,1,1,2,1,27,41,1.0,0.455724659608677,False,stim\7 F080C.jpg,2018-12-18 18:25:43,1,1
27,LookAtMe,3,1,1,2,1,28,11,3.0,1.2109014438465238,False,stim\2 M024C + M010C.jpg,2018-12-18 18:25:52,1,0
28,LookAtMe,3,1,1,2,1,29,41,1.0,0.4200391329359263,False,stim\7 F080C.jpg,2018-12-18 18:26:02,1,1
29,LookAtMe,3,1,1,2,1,30,11,1.0,0.4218611784745008,False,stim\2 M024C + M010C.jpg,2018-12-18 18:26:11,1,0
30,LookAtMe,3,1,1,2,1,31,16,5.0,0.4298876125831157,True,stim\1 M024C.jpg,2018-12-18 18:26:19,6,0
31,LookAtMe,3,1,1,2,1,32,46,5.0,0.3317126024048775,False,stim\8 F080C + F101C.jpg,2018-12-18 18:26:28,6,1
32,LookAtMe,3,1,1,2,1,33,11,1.0,0.4686487419530749,False,stim\2 M024C + M010C.jpg,2018-12-18 18:26:38,1,0
33,LookAtMe,3,1,1,2,1,34,46,4.0,0.2952587760519236,True,stim\8 F080C + F101C.jpg,2018-12-18 18:26:48,6,1
34,LookAtMe,3,1,1,2,1,35,16,5.0,0.4126689238473773,True,stim\1 M024C.jpg,2018-12-18 18:26:57,6,0
35,LookAtMe,3,1,1,2,1,36,41,2.0,0.3511478523723781,False,stim\7 F080C.jpg,2018-12-18 18:27:07,1,1
36,LookAtMe,3,1,1,2,1,37,46,4.0,0.8172402021009475,False,stim\8 F080C + F101C.jpg,2018-12-18 18:27:16,6,1
37,LookAtMe,3,1,1,2,1,38,41,3.0,0.3382111503742635,False,stim\7 F080C.jpg,2018-12-18 18:27:25,1,1
38,LookAtMe,3,1,1,2,1,39,16,5.0,0.3988809925504029,True,stim\1 M024C.jpg,2018-12-18 18:27:34,6,0
39,LookAtMe,3,1,1,2,1,40,11,1.0,0.3547826285939663,False,stim\2 M024C + M010C.jpg,2018-12-18 18:27:44,1,0
40,LookAtMe,3,1,1,2,1,41,16,5.0,0.4732988032046705,False,stim\1 M024C.jpg,2018-12-18 18:27:53,6,0
41,LookAtMe,3,1,1,2,1,42,41,2.0,0.4458124809898436,False,stim\7 F080C.jpg,2018-12-18 18:28:03,1,1
42,LookAtMe,3,1,1,2,1,43,46,4.0,0.9016840697731824,True,stim\8 F080C + F101C.jpg,2018-12-18 18:28:11,6,1
43,LookAtMe,3,1,1,2,1,44,11,1.0,0.4309650952927768,False,stim\2 M024C + M010C.jpg,2018-12-18 18:28:21,1,0
44,LookAtMe,3,1,1,2,1,45,16,1.0,0.8614975144155324,True,stim\1 M024C.jpg,2018-12-18 18:28:30,6,0
45,LookAtMe,3,1,1,2,1,46,11,1.0,0.5814301613718271,False,stim\2 M024C + M010C.jpg,2018-12-18 18:28:39,1,0
46,LookAtMe,3,1,1,2,1,47,46,5.0,0.680881264153868,True,stim\8 F080C + F101C.jpg,2018-12-18 18:28:47,6,1
47,LookAtMe,3,1,1,2,1,48,41,1.0,0.3373665316030383,False,stim\7 F080C.jpg,2018-12-18 18:28:56,1,1
48,LookAtMe,3,1,1,2,2,49,12,4.0,1.5835073050111532,False,stim\morph\1&2 80.jpg,2018-12-18 18:32:52,2,0
49,LookAtMe,3,1,1,2,2,50,16,4.0,0.5770472169388086,True,stim\1 M024C.jpg,2018-12-18 18:33:01,6,0
50,LookAtMe,3,1,1,2,2,51,15,5.0,1.201128982938826,False,stim\morph\1&2 20.jpg,2018-12-18 18:33:09,5,0
51,LookAtMe,3,1,1,2,2,52,14,2.0,0.6563341314904392,False,stim\morph\1&2 40.jpg,2018-12-18 18:33:18,4,0
52,LookAtMe,3,1,1,2,2,53,16,4.0,0.310371175641194,False,stim\1 M024C.jpg,2018-12-18 18:33:28,6,0
53,LookAtMe,3,1,1,2,2,54,43,3.0,0.8949941226746887,False,stim\morph\7&8 40.jpg,2018-12-18 18:33:37,3,1
54,LookAtMe,3,1,1,2,2,55,45,4.0,0.6618372250813991,False,stim\morph\7&8 80.jpg,2018-12-18 18:33:45,5,1
55,LookAtMe,3,1,1,2,2,56,13,2.0,0.3900526063516736,False,stim\morph\1&2 60.jpg,2018-12-18 18:33:55,3,0
56,LookAtMe,3,1,1,2,2,57,41,2.0,0.4882618696428835,False,stim\7 F080C.jpg,2018-12-18 18:34:05,1,1
57,LookAtMe,3,1,1,2,2,58,46,3.0,0.8206478236243129,True,stim\8 F080C + F101C.jpg,2018-12-18 18:34:14,6,1
58,LookAtMe,3,1,1,2,2,59,11,2.0,0.5949182242620736,False,stim\2 M024C + M010C.jpg,2018-12-18 18:34:23,1,0
59,LookAtMe,3,1,1,2,2,60,42,2.0,0.7291693708393723,False,stim\morph\7&8 20.jpg,2018-12-18 18:34:32,2,1
60,LookAtMe,3,1,1,2,2,61,46,5.0,0.9821283917408437,False,stim\8 F080C + F101C.jpg,2018-12-18 18:34:41,6,1
61,LookAtMe,3,1,1,2,2,62,44,4.0,0.4359042081050575,False,stim\morph\7&8 60.jpg,2018-12-18 18:34:50,4,1
62,LookAtMe,3,1,1,2,2,63,16,4.0,0.446107842028141,False,stim\1 M024C.jpg,2018-12-18 18:35:00,6,0
63,LookAtMe,3,1,1,2,2,64,15,4.0,0.8669486271683127,False,stim\morph\1&2 20.jpg,2018-12-18 18:35:08,5,0
64,LookAtMe,3,1,1,2,2,65,45,1.0,0.6723830935079604,False,stim\morph\7&8 80.jpg,2018-12-18 18:35:18,5,1
65,LookAtMe,3,1,1,2,2,66,46,3.0,0.4997710424941033,True,stim\8 F080C + F101C.jpg,2018-12-18 18:35:28,6,1
66,LookAtMe,3,1,1,2,2,67,13,1.0,0.5048709064722061,False,stim\morph\1&2 60.jpg,2018-12-18 18:35:36,3,0
67,LookAtMe,3,1,1,2,2,68,16,4.0,0.7652566246688366,True,stim\1 M024C.jpg,2018-12-18 18:35:44,6,0
68,LookAtMe,3,1,1,2,2,69,42,2.0,0.6729714123066515,False,stim\morph\7&8 20.jpg,2018-12-18 18:35:53,2,1
69,LookAtMe,3,1,1,2,2,70,12,1.0,0.5777001364622265,False,stim\morph\1&2 80.jpg,2018-12-18 18:36:02,2,0
70,LookAtMe,3,1,1,2,2,71,46,5.0,0.5273186608683318,False,stim\8 F080C + F101C.jpg,2018-12-18 18:36:10,6,1
71,LookAtMe,3,1,1,2,2,72,44,4.0,0.7273055603727698,False,stim\morph\7&8 60.jpg,2018-12-18 18:36:20,4,1
72,LookAtMe,3,1,1,2,2,73,41,2.0,1.2333347755484283,False,stim\7 F080C.jpg,2018-12-18 18:36:30,1,1
73,LookAtMe,3,1,1,2,2,74,11,1.0,0.521009408403188,False,stim\2 M024C + M010C.jpg,2018-12-18 18:36:39,1,0
74,LookAtMe,3,1,1,2,2,75,14,1.0,1.6289920338895172,False,stim\morph\1&2 40.jpg,2018-12-18 18:36:49,4,0
75,LookAtMe,3,1,1,2,2,76,43,4.0,1.4671875599306077,False,stim\morph\7&8 40.jpg,2018-12-18 18:36:58,3,1
76,LookAtMe,3,1,1,2,2,77,14,1.0,0.6594650207553059,False,stim\morph\1&2 40.jpg,2018-12-18 18:37:08,4,0
77,LookAtMe,3,1,1,2,2,78,43,2.0,0.8084580881986767,False,stim\morph\7&8 40.jpg,2018-12-18 18:37:18,3,1
78,LookAtMe,3,1,1,2,2,79,42,1.0,0.4550906694494188,False,stim\morph\7&8 20.jpg,2018-12-18 18:37:26,2,1
79,LookAtMe,3,1,1,2,2,80,15,4.0,0.5174686789978296,False,stim\morph\1&2 20.jpg,2018-12-18 18:37:36,5,0
80,LookAtMe,3,1,1,2,2,81,16,3.0,0.6696812743321061,True,stim\1 M024C.jpg,2018-12-18 18:37:44,6,0
81,LookAtMe,3,1,1,2,2,82,13,1.0,0.656594037078321,False,stim\morph\1&2 60.jpg,2018-12-18 18:37:54,3,0
82,LookAtMe,3,1,1,2,2,83,44,3.0,0.583168676123023,False,stim\morph\7&8 60.jpg,2018-12-18 18:38:04,4,1
83,LookAtMe,3,1,1,2,2,84,46,2.0,0.6095005960669369,False,stim\8 F080C + F101C.jpg,2018-12-18 18:38:12,6,1
84,LookAtMe,3,1,1,2,2,85,41,1.0,0.6191123055759817,False,stim\7 F080C.jpg,2018-12-18 18:38:22,1,1
85,LookAtMe,3,1,1,2,2,86,12,1.0,0.5456052171066403,False,stim\morph\1&2 80.jpg,2018-12-18 18:38:32,2,0
86,LookAtMe,3,1,1,2,2,87,46,5.0,0.4848635629750788,True,stim\8 F080C + F101C.jpg,2018-12-18 18:38:41,6,1
87,LookAtMe,3,1,1,2,2,88,16,4.0,0.6871899156831205,False,stim\1 M024C.jpg,2018-12-18 18:38:50,6,0
88,LookAtMe,3,1,1,2,2,89,45,5.0,1.1406280046794564,False,stim\morph\7&8 80.jpg,2018-12-18 18:38:58,5,1
89,LookAtMe,3,1,1,2,2,90,11,1.0,0.5476246709004045,False,stim\2 M024C + M010C.jpg,2018-12-18 18:39:07,1,0
90,LookAtMe,3,1,1,2,2,91,45,4.0,0.9028498905245216,False,stim\morph\7&8 80.jpg,2018-12-18 18:39:16,5,1
91,LookAtMe,3,1,1,2,2,92,11,1.0,0.5644100827630609,False,stim\2 M024C + M010C.jpg,2018-12-18 18:39:26,1,0
92,LookAtMe,3,1,1,2,2,93,46,4.0,0.9401098755188286,False,stim\8 F080C + F101C.jpg,2018-12-18 18:39:35,6,1
93,LookAtMe,3,1,1,2,2,94,42,2.0,1.0755680068396032,False,stim\morph\7&8 20.jpg,2018-12-18 18:39:44,2,1
94,LookAtMe,3,1,1,2,2,95,41,1.0,0.9270623004995286,False,stim\7 F080C.jpg,2018-12-18 18:39:53,1,1
95,LookAtMe,3,1,1,2,2,96,46,3.0,0.4759047729894519,True,stim\8 F080C + F101C.jpg,2018-12-18 18:40:03,6,1
96,LookAtMe,3,1,1,2,2,97,15,3.0,1.041817802703008,False,stim\morph\1&2 20.jpg,2018-12-18 18:40:12,5,0
97,LookAtMe,3,1,1,2,2,98,44,4.0,1.3719577491283417,False,stim\morph\7&8 60.jpg,2018-12-18 18:40:21,4,1
98,LookAtMe,3,1,1,2,2,99,16,3.0,1.495866144541651,False,stim\1 M024C.jpg,2018-12-18 18:40:29,6,0
99,LookAtMe,3,1,1,2,2,100,43,4.0,0.5987050377298146,False,stim\morph\7&8 40.jpg,2018-12-18 18:40:39,3,1
100,LookAtMe,3,1,1,2,2,101,16,4.0,1.795496146660298,True,stim\1 M024C.jpg,2018-12-18 18:40:48,6,0
101,LookAtMe,3,1,1,2,2,102,12,1.0,0.468864779220894,False,stim\morph\1&2 80.jpg,2018-12-18 18:40:58,2,0
102,LookAtMe,3,1,1,2,2,103,13,1.0,0.4534161547198891,False,stim\morph\1&2 60.jpg,2018-12-18 18:41:07,3,0
103,LookAtMe,3,1,1,2,2,104,14,1.0,0.7937546272296458,False,stim\morph\1&2 40.jpg,2018-12-18 18:41:17,4,0
104,LookAtMe,3,1,1,2,2,105,44,4.0,0.9402793401386588,False,stim\morph\7&8 60.jpg,2018-12-18 18:41:25,4,1
105,LookAtMe,3,1,1,2,2,106,46,4.0,0.4794301781803369,False,stim\8 F080C + F101C.jpg,2018-12-18 18:41:34,6,1
106,LookAtMe,3,1,1,2,2,107,42,1.0,0.5121990500483662,False,stim\morph\7&8 20.jpg,2018-12-18 18:41:44,2,1
107,LookAtMe,3,1,1,2,2,108,16,1.0,0.981930983485654,True,stim\1 M024C.jpg,2018-12-18 18:41:52,6,0
108,LookAtMe,3,1,1,2,2,109,43,1.0,0.5648178195115179,False,stim\morph\7&8 40.jpg,2018-12-18 18:42:01,3,1
109,LookAtMe,3,1,1,2,2,110,45,2.0,0.5777358924970031,False,stim\morph\7&8 80.jpg,2018-12-18 18:42:10,5,1
110,LookAtMe,3,1,1,2,2,111,11,1.0,0.8817584540229291,False,stim\2 M024C + M010C.jpg,2018-12-18 18:42:20,1,0
111,LookAtMe,3,1,1,2,2,112,16,4.0,0.5220027593895793,False,stim\1 M024C.jpg,2018-12-18 18:42:29,6,0
112,LookAtMe,3,1,1,2,2,113,41,2.0,1.322565117618069,False,stim\7 F080C.jpg,2018-12-18 18:42:39,1,1
113,LookAtMe,3,1,1,2,2,114,13,1.0,1.0696553739253432,False,stim\morph\1&2 60.jpg,2018-12-18 18:42:49,3,0
114,LookAtMe,3,1,1,2,2,115,15,3.0,0.4122239288408309,False,stim\morph\1&2 20.jpg,2018-12-18 18:42:58,5,0
115,LookAtMe,3,1,1,2,2,116,46,4.0,0.9835270759649576,True,stim\8 F080C + F101C.jpg,2018-12-18 18:43:08,6,1
116,LookAtMe,3,1,1,2,2,117,14,1.0,0.9194327862933278,False,stim\morph\1&2 40.jpg,2018-12-18 18:43:17,4,0
117,LookAtMe,3,1,1,2,2,118,12,1.0,0.6933161825872958,False,stim\morph\1&2 80.jpg,2018-12-18 18:43:27,2,0
118,LookAtMe,3,1,1,2,2,119,14,1.0,0.3776366172824055,False,stim\morph\1&2 40.jpg,2018-12-18 18:43:36,4,0
119,LookAtMe,3,1,1,2,2,120,43,4.0,0.5787019007839262,False,stim\morph\7&8 40.jpg,2018-12-18 18:43:45,3,1
120,LookAtMe,3,1,1,2,2,121,44,3.0,0.6026772407349199,False,stim\morph\7&8 60.jpg,2018-12-18 18:43:55,4,1
121,LookAtMe,3,1,1,2,2,122,46,3.0,0.6144670518115163,False,stim\8 F080C + F101C.jpg,2018-12-18 18:44:05,6,1
122,LookAtMe,3,1,1,2,2,123,12,1.0,0.3831120678223669,False,stim\morph\1&2 80.jpg,2018-12-18 18:44:13,2,0
123,LookAtMe,3,1,1,2,2,124,16,3.0,1.7348079760558903,True,stim\1 M024C.jpg,2018-12-18 18:44:22,6,0
124,LookAtMe,3,1,1,2,2,125,42,1.0,0.4324800607282668,False,stim\morph\7&8 20.jpg,2018-12-18 18:44:32,2,1
125,LookAtMe,3,1,1,2,2,126,15,3.0,0.5304525545798242,False,stim\morph\1&2 20.jpg,2018-12-18 18:44:41,5,0
126,LookAtMe,3,1,1,2,2,127,11,1.0,0.7607333611231297,False,stim\2 M024C + M010C.jpg,2018-12-18 18:44:51,1,0
127,LookAtMe,3,1,1,2,2,128,13,1.0,0.4437722947914153,False,stim\morph\1&2 60.jpg,2018-12-18 18:45:01,3,0
128,LookAtMe,3,1,1,2,2,129,46,4.0,0.4019277503248304,True,stim\8 F080C + F101C.jpg,2018-12-18 18:45:11,6,1
129,LookAtMe,3,1,1,2,2,130,16,4.0,0.3821712986100465,False,stim\1 M024C.jpg,2018-12-18 18:45:21,6,0
130,LookAtMe,3,1,1,2,2,131,45,5.0,0.4612755277194083,False,stim\morph\7&8 80.jpg,2018-12-18 18:45:30,5,1
131,LookAtMe,3,1,1,2,2,132,41,1.0,0.3665102424565702,False,stim\7 F080C.jpg,2018-12-18 18:45:39,1,1
132,LookAtMe,3,1,1,2,2,133,16,5.0,0.9213239394593984,False,stim\1 M024C.jpg,2018-12-18 18:45:48,6,0
133,LookAtMe,3,1,1,2,2,134,15,4.0,0.8497593842912465,False,stim\morph\1&2 20.jpg,2018-12-18 18:45:57,5,0
134,LookAtMe,3,1,1,2,2,135,41,1.0,0.4907482524868101,False,stim\7 F080C.jpg,2018-12-18 18:46:06,1,1
135,LookAtMe,3,1,1,2,2,136,13,1.0,0.6508625871501863,False,stim\morph\1&2 60.jpg,2018-12-18 18:46:16,3,0
136,LookAtMe,3,1,1,2,2,137,46,3.0,0.928439350798726,False,stim\8 F080C + F101C.jpg,2018-12-18 18:46:26,6,1
137,LookAtMe,3,1,1,2,2,138,16,3.0,1.8136342712678013,True,stim\1 M024C.jpg,2018-12-18 18:46:36,6,0
138,LookAtMe,3,1,1,2,2,139,12,1.0,0.4723180718719959,False,stim\morph\1&2 80.jpg,2018-12-18 18:46:44,2,0
139,LookAtMe,3,1,1,2,2,140,11,1.0,0.5816389874089509,False,stim\2 M024C + M010C.jpg,2018-12-18 18:46:53,1,0
140,LookAtMe,3,1,1,2,2,141,14,1.0,0.3455591250676662,False,stim\morph\1&2 40.jpg,2018-12-18 18:47:02,4,0
141,LookAtMe,3,1,1,2,2,142,43,4.0,0.3959970891010016,False,stim\morph\7&8 40.jpg,2018-12-18 18:47:11,3,1
142,LookAtMe,3,1,1,2,2,143,46,4.0,0.2687057107686996,True,stim\8 F080C + F101C.jpg,2018-12-18 18:47:21,6,1
143,LookAtMe,3,1,1,2,2,144,42,4.0,0.8296165291685611,False,stim\morph\7&8 20.jpg,2018-12-18 18:47:30,2,1
144,LookAtMe,3,1,1,2,2,145,44,4.0,0.3616871107369661,False,stim\morph\7&8 60.jpg,2018-12-18 18:47:39,4,1
145,LookAtMe,3,1,1,2,2,146,46,4.0,0.3456657917704433,True,stim\8 F080C + F101C.jpg,2018-12-18 18:47:48,6,1
146,LookAtMe,3,1,1,2,2,147,45,5.0,0.2977779100183397,False,stim\morph\7&8 80.jpg,2018-12-18 18:47:57,5,1
147,LookAtMe,3,1,1,2,2,148,12,1.0,0.3263182786758989,False,stim\morph\1&2 80.jpg,2018-12-18 18:48:06,2,0
148,LookAtMe,3,1,1,2,2,149,43,1.0,0.3467931521590799,False,stim\morph\7&8 40.jpg,2018-12-18 18:48:15,3,1
149,LookAtMe,3,1,1,2,2,150,14,1.0,0.8033453039824963,False,stim\morph\1&2 40.jpg,2018-12-18 18:48:24,4,0
150,LookAtMe,3,1,1,2,2,151,16,4.0,0.3713928670622408,True,stim\1 M024C.jpg,2018-12-18 18:48:33,6,0
151,LookAtMe,3,1,1,2,2,152,42,2.0,1.406402938766405,False,stim\morph\7&8 20.jpg,2018-12-18 18:48:43,2,1
152,LookAtMe,3,1,1,2,2,153,45,4.0,0.3762923181056976,False,stim\morph\7&8 80.jpg,2018-12-18 18:48:52,5,1
153,LookAtMe,3,1,1,2,2,154,16,4.0,0.4344920027069747,False,stim\1 M024C.jpg,2018-12-18 18:49:02,6,0
154,LookAtMe,3,1,1,2,2,155,13,1.0,0.2915621034335345,False,stim\morph\1&2 60.jpg,2018-12-18 18:49:11,3,0
155,LookAtMe,3,1,1,2,2,156,44,4.0,0.4573646206408739,False,stim\morph\7&8 60.jpg,2018-12-18 18:49:21,4,1
156,LookAtMe,3,1,1,2,2,157,15,4.0,1.10140265035443,False,stim\morph\1&2 20.jpg,2018-12-18 18:49:29,5,0
157,LookAtMe,3,1,1,2,2,158,41,1.0,0.4319680612534284,False,stim\7 F080C.jpg,2018-12-18 18:49:39,1,1
158,LookAtMe,3,1,1,2,2,159,11,1.0,0.3212737010326236,False,stim\2 M024C + M010C.jpg,2018-12-18 18:49:48,1,0
159,LookAtMe,3,1,1,2,2,160,46,5.0,0.8538773148320615,False,stim\8 F080C + F101C.jpg,2018-12-18 18:49:58,6,1
